"id","trial_number","rt","response","attempt","correct","incorrect","ssd","answer","task","stop","rt_z","ssd_z"
2,"1",126.2,"Right",1,1,0,250,"Right","NoStop",0,-0.879036996974553,0.704896806108174
2,"2",142.7,"Left",1,1,0,250,"Left","NoStop",0,-0.826191829485117,0.704896806108174
2,"3",135.5,"Right",1,1,0,250,"Right","NoStop",0,-0.849251538935052,0.704896806108174
2,"4",106.9,"Right",1,0,1,250,"NoGo","Stop",1,-0.940849829250074,0.704896806108174
2,"5",158.6,"Right",1,1,0,200,"Right","NoStop",0,-0.775268304449842,0.265936677758507
2,"6",238.2,"Left",1,1,0,200,"Left","NoStop",0,-0.52033040553111,0.265936677758507
2,"7",146.2,"Right",1,1,0,200,"Right","NoStop",0,-0.814982248502509,0.265936677758507
2,"8",187.3,"Left",1,1,0,200,"Left","NoStop",0,-0.68334974039246,0.265936677758507
2,"9",192.6,"Right",1,1,0,200,"Right","NoStop",0,-0.666375232047368,0.265936677758507
2,"10",221.4,"Right",1,0,1,200,"NoGo","Stop",1,-0.574136394247626,0.265936677758507
2,"11",208.3,"Right",1,1,0,150,"Right","NoStop",0,-0.616092254496814,-0.173023450591161
2,"12",234.4,"Right",1,0,1,150,"NoGo","Stop",1,-0.532500807740798,-0.173023450591161
2,"13",1053.6,"Right",1,0,1,100,"NoGo","Stop",1,2.0911816896741,-0.611983578940828
2,"14",306.4,"Left",1,1,0,50,"Left","NoStop",0,-0.301903713241442,-1.05094370729049
2,"15",395.5,"Right",1,1,0,50,"Right","NoStop",0,-0.0165398087984884,-1.05094370729049
2,"16",1449.868,"NoGo",NA,1,0,50,"NoGo","Stop",1,3.36032404305008,-1.05094370729049
2,"17",336.4,"Right",1,1,0,100,"Right","NoStop",0,-0.205821590533377,-0.611983578940828
2,"18",263.6,"Right",1,1,0,100,"Right","NoStop",0,-0.438980874971614,-0.611983578940828
2,"19",400.1,"Left",1,1,0,100,"Left","NoStop",0,-0.00180721664991833,-0.611983578940828
2,"20",363.8,"Left",1,1,0,100,"Left","NoStop",0,-0.118066585126677,-0.611983578940828
2,"21",319.4,"Left",1,1,0,100,"Left","NoStop",0,-0.260268126734614,-0.611983578940828
2,"22",279.6,"Right",1,1,0,100,"Right","NoStop",0,-0.38773707619398,-0.611983578940828
2,"23",357.2,"Right",1,1,0,100,"Right","NoStop",0,-0.139204652122452,-0.611983578940828
2,"24",1399.86,"NoGo",NA,1,0,100,"NoGo","Stop",1,3.20016154997059,-0.611983578940828
2,"25",247,"Right",1,0,1,150,"NoGo","Stop",1,-0.49214631620341,-0.173023450591161
2,"26",297.1,"Left",1,1,0,100,"Left","NoStop",0,-0.331689171280942,-0.611983578940828
2,"27",312.2,"Left",1,1,0,100,"Left","NoStop",0,-0.283327836184549,-0.611983578940828
2,"28",316.5,"Left",1,0,1,100,"NoGo","Stop",1,-0.26955606526306,-0.611983578940828
2,"29",399.1,"Right",1,1,0,50,"Right","NoStop",0,-0.0050099540735205,-1.05094370729049
2,"30",519.5,"Right",1,1,0,50,"Right","NoStop",0,0.380599631728181,-1.05094370729049
2,"31",1449.95,"NoGo",NA,1,0,50,"NoGo","Stop",1,3.36058666751882,-1.05094370729049
2,"32",1399.901,"NoGo",NA,1,0,100,"NoGo","Stop",1,3.20029286220495,-0.611983578940828
2,"33",369.3,"Left",1,1,0,150,"Left","NoStop",0,-0.100451529296865,-0.173023450591161
2,"34",1349.854,"NoGo",NA,1,0,150,"NoGo","Stop",1,3.04000546236594,-0.173023450591161
2,"35",1299.808,"NoGo",NA,1,0,200,"NoGo","Stop",1,2.87972126526434,0.265936677758507
2,"36",250.8,"Right",1,1,0,250,"Right","NoStop",0,-0.479975913993722,0.704896806108174
2,"37",201.5,"Left",1,1,0,250,"Left","NoStop",0,-0.637870868977309,0.704896806108174
2,"38",256.3,"Right",1,1,0,250,"Right","NoStop",0,-0.46236085816391,0.704896806108174
2,"39",172.3,"Left",1,1,0,250,"Left","NoStop",0,-0.731390801746493,0.704896806108174
2,"40",189.4,"Left",1,1,0,250,"Left","NoStop",0,-0.676623991802895,0.704896806108174
2,"41",250.4,"Right",1,1,0,250,"Right","NoStop",0,-0.481257008963163,0.704896806108174
2,"42",204.2,"Right",1,1,0,250,"Right","NoStop",0,-0.629223477933583,0.704896806108174
2,"43",225.4,"Left",1,0,1,250,"NoGo","Stop",1,-0.561325444553217,0.704896806108174
2,"44",471.8,"Right",1,1,0,200,"Right","NoStop",0,0.227829056622357,0.265936677758507
2,"45",1299.944,"NoGo",NA,1,0,200,"NoGo","Stop",1,2.88015683755395,0.265936677758507
2,"46",190,"Right",1,1,0,250,"Right","NoStop",0,-0.674702349348734,0.704896806108174
2,"47",199.7,"Right",1,1,0,250,"Right","NoStop",0,-0.643635796339793,0.704896806108174
2,"48",143.5,"Right",1,0,1,250,"NoGo","Stop",1,-0.823629639546235,0.704896806108174
2,"49",352,"Right",1,1,0,200,"Right","NoStop",0,-0.155858886725183,0.265936677758507
2,"50",311.8,"Right",1,1,0,200,"Right","NoStop",0,-0.28460893115399,0.265936677758507
2,"51",419.6,"Left",1,1,0,200,"Left","NoStop",0,0.060646163110324,0.265936677758507
2,"52",1299.865,"NoGo",NA,1,0,200,"NoGo","Stop",1,2.87990382129749,0.265936677758507
2,"53",201.1,"Right",1,1,0,250,"Right","NoStop",0,-0.63915196394675,0.704896806108174
2,"54",211.2,"Left",1,1,0,250,"Left","NoStop",0,-0.606804315968368,0.704896806108174
2,"55",284.4,"Right",1,1,0,250,"Right","NoStop",0,-0.372363936560689,0.704896806108174
2,"56",221.6,"Left",1,1,0,250,"Left","NoStop",0,-0.573495846762906,0.704896806108174
2,"57",186.3,"Left",1,0,1,250,"NoGo","Stop",1,-0.686552477816062,0.704896806108174
2,"58",299.6,"Right",1,1,0,200,"Right","NoStop",0,-0.323682327721936,0.265936677758507
2,"59",329.4,"Right",1,1,0,200,"Right","NoStop",0,-0.228240752498592,0.265936677758507
2,"60",418.6,"Left",1,1,0,200,"Left","NoStop",0,0.0574434256867218,0.265936677758507
2,"61",1299.905,"NoGo",NA,1,0,200,"NoGo","Stop",1,2.88003193079443,0.265936677758507
2,"62",139.8,"Left",1,0,1,250,"NoGo","Stop",1,-0.835479768013563,0.704896806108174
2,"63",471.5,"Right",1,1,0,200,"Right","NoStop",0,0.226868235395276,0.265936677758507
2,"64",467.2,"Right",1,1,0,200,"Right","NoStop",0,0.213096464473787,0.265936677758507
2,"65",359,"Left",1,1,0,200,"Left","NoStop",0,-0.133439724759968,0.265936677758507
2,"66",363.7,"Left",1,1,0,200,"Left","NoStop",0,-0.118386858869037,0.265936677758507
2,"67",236.6,"Left",1,1,0,200,"Left","NoStop",0,-0.525454785408873,0.265936677758507
2,"68",416.5,"Right",1,1,0,200,"Right","NoStop",0,0.0507176770971572,0.265936677758507
2,"69",1300.124,"NoGo",NA,1,0,200,"NoGo","Stop",1,2.8807333302902,0.265936677758507
2,"70",209.1,"Right",1,1,0,250,"Right","NoStop",0,-0.613530064557933,0.704896806108174
2,"71",1249.913,"NoGo",NA,1,0,250,"NoGo","Stop",1,2.71992068151371,0.704896806108174
2,"72",208.1,"Left",1,1,0,300,"Left","NoStop",0,-0.616732801981535,1.14385693445784
2,"73",316.1,"Left",1,1,0,300,"Left","NoStop",0,-0.270837160232501,1.14385693445784
2,"74",173.2,"Right",1,1,0,300,"Right","NoStop",0,-0.728508338065251,1.14385693445784
2,"75",242.7,"Left",1,1,0,300,"Left","NoStop",0,-0.5059180871249,1.14385693445784
2,"76",229.6,"Right",1,1,0,300,"Right","NoStop",0,-0.547873947374088,1.14385693445784
2,"77",189.1,"Left",1,1,0,300,"Left","NoStop",0,-0.677584813029976,1.14385693445784
2,"78",534.7,"Left",1,1,0,300,"Left","NoStop",0,0.429281240566934,1.14385693445784
2,"79",227.7,"Left",1,0,1,300,"NoGo","Stop",1,-0.553959148478932,1.14385693445784
2,"80",327.9,"Left",1,1,0,250,"Left","NoStop",0,-0.233044858633995,0.704896806108174
2,"81",227.1,"Left",1,1,0,250,"Left","NoStop",0,-0.555880790933094,0.704896806108174
2,"82",436,"Right",1,1,0,250,"Right","NoStop",0,0.113171056857399,0.704896806108174
2,"83",258.2,"Right",1,1,0,250,"Right","NoStop",0,-0.456275657059066,0.704896806108174
2,"84",265.7,"Left",1,1,0,250,"Left","NoStop",0,-0.43225512638205,0.704896806108174
2,"85",293.2,"Right",1,1,0,250,"Right","NoStop",0,-0.34417984723299,0.704896806108174
2,"86",201.5,"Right",1,1,0,250,"Right","NoStop",0,-0.637870868977309,0.704896806108174
2,"87",111.8,"Right",1,1,0,250,"Right","NoStop",0,-0.925156415874424,0.704896806108174
2,"88",1249.919,"NoGo",NA,1,0,250,"NoGo","Stop",1,2.71993989793825,0.704896806108174
2,"89",117.3,"Right",1,1,0,300,"Right","NoStop",0,-0.907541360044612,1.14385693445784
2,"90",248,"Left",1,1,0,300,"Left","NoStop",0,-0.488943578779808,1.14385693445784
2,"91",180.1,"Left",1,1,0,300,"Left","NoStop",0,-0.706409449842396,1.14385693445784
2,"92",1199.824,"NoGo",NA,1,0,300,"NoGo","Stop",1,2.5594987667029,1.14385693445784
2,"93",87.40000001,"Right",1,0,1,350,"NoGo","Stop",1,-1.00330320897829,1.58281706280751
2,"94",350.2,"Right",1,1,0,300,"Right","NoStop",0,-0.161623814087667,1.14385693445784
2,"95",269.1,"Left",1,1,0,300,"Left","NoStop",0,-0.421365819141802,1.14385693445784
2,"96",222.4,"Left",1,1,0,300,"Left","NoStop",0,-0.570933656824024,1.14385693445784
2,"97",194.1,"Right",1,1,0,300,"Right","NoStop",0,-0.661571125911965,1.14385693445784
2,"98",209.7,"Left",1,1,0,300,"Left","NoStop",0,-0.611608422103771,1.14385693445784
2,"99",332.3,"Left",1,1,0,300,"Left","NoStop",0,-0.218952813970145,1.14385693445784
2,"100",104.3,"Right",1,1,0,300,"Right","NoStop",0,-0.94917694655144,1.14385693445784
2,"101",119.9,"Right",1,1,0,300,"Right","NoStop",0,-0.899214242743246,1.14385693445784
2,"102",157.7,"Right",1,1,0,300,"Right","NoStop",0,-0.778150768131084,1.14385693445784
2,"103",1199.883,"NoGo",NA,1,0,300,"NoGo","Stop",1,2.5596877282109,1.14385693445784
2,"104",39.80000001,"Right",1,0,1,350,"NoGo","Stop",1,-1.15575351034175,1.58281706280751
2,"105",139.6,"Right",1,1,0,300,"Right","NoStop",0,-0.836120315498283,1.14385693445784
2,"106",127.1,"Right",1,0,1,300,"NoGo","Stop",1,-0.876154533293311,1.14385693445784
2,"107",217,"Left",1,1,0,250,"Left","NoStop",0,-0.588228438911476,0.704896806108174
2,"108",229.2,"Right",1,1,0,250,"Right","NoStop",0,-0.549155042343529,0.704896806108174
2,"109",1249.831,"NoGo",NA,1,0,250,"NoGo","Stop",1,2.71965805704498,0.704896806108174
2,"110",127.8,"Left",1,1,0,300,"Left","NoStop",0,-0.873912617096789,1.14385693445784
2,"111",199.6,"Left",1,1,0,300,"Left","NoStop",0,-0.643956070082153,1.14385693445784
2,"112",184.6,"Right",1,1,0,300,"Right","NoStop",0,-0.691997131436186,1.14385693445784
2,"113",219.7,"Right",1,1,0,300,"Right","NoStop",0,-0.57958104786775,1.14385693445784
2,"114",146.7,"Right",1,1,0,300,"Right","NoStop",0,-0.813380879790708,1.14385693445784
2,"115",273.5,"Left",1,1,0,300,"Left","NoStop",0,-0.407273774477953,1.14385693445784
2,"116",133.4,"Left",1,1,0,300,"Left","NoStop",0,-0.855977287524617,1.14385693445784
2,"117",1199.822,"NoGo",NA,1,0,300,"NoGo","Stop",1,2.55949236122806,1.14385693445784
2,"118",161.3,"Left",1,0,1,350,"NoGo","Stop",1,-0.766620913406116,1.58281706280751
2,"119",231.3,"Left",1,1,0,300,"Left","NoStop",0,-0.542429293753965,1.14385693445784
2,"120",220.8,"Right",1,1,0,300,"Right","NoStop",0,-0.576058036701787,1.14385693445784
2,"121",419,"Left",1,1,0,300,"Left","NoStop",0,0.0587245206561626,1.14385693445784
2,"122",158.5,"Left",1,1,0,300,"Left","NoStop",0,-0.775588578192202,1.14385693445784
2,"123",218.2,"Right",1,1,0,300,"Right","NoStop",0,-0.584385154003153,1.14385693445784
2,"124",142.5,"Left",1,1,0,300,"Left","NoStop",0,-0.826832376969837,1.14385693445784
2,"125",1200.163,"NoGo",NA,1,0,300,"NoGo","Stop",1,2.5605844946895,1.14385693445784
2,"126",104.3,"Left",1,1,0,350,"Left","NoStop",0,-0.94917694655144,1.58281706280751
2,"127",57.89999998,"Left",1,1,0,350,"Left","NoStop",0,-1.09778396307064,1.58281706280751
2,"128",166,"Left",1,1,0,350,"Left","NoStop",0,-0.751568047515186,1.58281706280751
2,"129",29.30000001,"Left",1,1,0,350,"Left","NoStop",0,-1.18938225328958,1.58281706280751
2,"130",289.3,"Right",1,1,0,350,"Right","NoStop",0,-0.356670523185039,1.58281706280751
2,"131",109.7,"Left",1,0,1,350,"NoGo","Stop",1,-0.931882164463988,1.58281706280751
2,"132",263,"Left",1,1,0,300,"Left","NoStop",0,-0.440902517425776,1.14385693445784
2,"133",166.6,"Left",1,1,0,300,"Left","NoStop",0,-0.749646405061025,1.14385693445784
2,"134",123.9,"Left",1,1,0,300,"Left","NoStop",0,-0.886403293048838,1.14385693445784
2,"135",106.9,"Left",1,1,0,300,"Left","NoStop",0,-0.940849829250074,1.14385693445784
2,"136",241.8,"Right",1,1,0,300,"Right","NoStop",0,-0.508800550806142,1.14385693445784
2,"137",201.1,"Left",1,1,0,300,"Left","NoStop",0,-0.63915196394675,1.14385693445784
2,"138",179.5,"Right",1,1,0,300,"Right","NoStop",0,-0.708331092296557,1.14385693445784
2,"139",162.5,"Right",1,1,0,300,"Right","NoStop",0,-0.762777628497794,1.14385693445784
2,"140",290.3,"Left",1,1,0,300,"Left","NoStop",0,-0.353467785761437,1.14385693445784
2,"141",298.9,"Left",1,1,0,300,"Left","NoStop",0,-0.325924243918458,1.14385693445784
2,"142",1199.944,"NoGo",NA,1,0,300,"NoGo","Stop",1,2.55988309519373,1.14385693445784
2,"143",343.4,"Right",1,1,0,350,"Right","NoStop",0,-0.183402428568161,1.58281706280751
2,"144",75.30000001,"Right",1,1,0,350,"Right","NoStop",0,-1.04205633180388,1.58281706280751
2,"145",92.90000001,"Right",1,1,0,350,"Right","NoStop",0,-0.985688153148477,1.58281706280751
2,"146",144.2,"Right",1,0,1,350,"NoGo","Stop",1,-0.821387723349714,1.58281706280751
2,"147",339.9,"Right",1,0,1,300,"Left","NoStop",0,-0.194612009550769,1.14385693445784
2,"148",226.6,"Left",1,1,0,300,"Left","NoStop",0,-0.557482159644895,1.14385693445784
2,"149",284.7,"Right",1,1,0,300,"Right","NoStop",0,-0.371403115333609,1.14385693445784
2,"150",292.2,"Right",1,1,0,300,"Right","NoStop",0,-0.347382584656592,1.14385693445784
2,"151",228.1,"Right",1,1,0,300,"Right","NoStop",0,-0.552678053509492,1.14385693445784
2,"152",253.7,"Right",1,1,0,300,"Right","NoStop",0,-0.470687975465276,1.14385693445784
2,"153",807.5,"Left",1,1,0,300,"Left","NoStop",0,1.30298800972561,1.14385693445784
2,"154",278.9,"Left",1,1,0,300,"Left","NoStop",0,-0.389978992390501,1.14385693445784
2,"155",196.2,"Left",1,0,1,300,"NoGo","Stop",1,-0.654845377322401,1.14385693445784
2,"156",625.4,"Right",1,1,0,250,"Right","NoStop",0,0.71976952488765,0.704896806108174
2,"157",368.2,"Left",1,1,0,250,"Left","NoStop",0,-0.103974540462828,0.704896806108174
2,"158",301,"Left",1,1,0,250,"Left","NoStop",0,-0.319198495328893,0.704896806108174
2,"159",262.8,"Right",1,1,0,250,"Right","NoStop",0,-0.441543064910496,0.704896806108174
2,"160",310.4,"Left",1,1,0,250,"Left","NoStop",0,-0.289092763547033,0.704896806108174
2,"161",360.4,"Right",1,1,0,250,"Right","NoStop",0,-0.128955892366925,0.704896806108174
2,"162",345.5,"Left",1,1,0,250,"Left","NoStop",0,-0.176676679978597,0.704896806108174
2,"163",245.1,"Left",1,1,0,250,"Left","NoStop",0,-0.498231517308255,0.704896806108174
2,"164",429.2,"Left",1,1,0,250,"Left","NoStop",0,0.0913924423769047,0.704896806108174
2,"165",274.3,"Left",1,1,0,250,"Left","NoStop",0,-0.404711584539071,0.704896806108174
2,"166",242.9,"Left",1,1,0,250,"Left","NoStop",0,-0.505277539640179,0.704896806108174
2,"167",174,"Left",1,0,1,250,"NoGo","Stop",1,-0.725946148126369,0.704896806108174
2,"168",331.8,"Right",1,1,0,200,"Right","NoStop",0,-0.220554182681947,0.265936677758507
2,"169",337.3,"Left",1,1,0,200,"Left","NoStop",0,-0.202939126852135,0.265936677758507
2,"170",199.1,"Right",1,1,0,200,"Right","NoStop",0,-0.645557438793954,0.265936677758507
2,"171",185.9,"Left",1,1,0,200,"Left","NoStop",0,-0.687833572785503,0.265936677758507
2,"172",198.7,"Left",1,0,1,200,"NoGo","Stop",1,-0.646838533763395,0.265936677758507
2,"173",1349.893,"NoGo",NA,1,0,150,"NoGo","Stop",1,3.04013036912546,-0.173023450591161
2,"174",211.1,"Right",1,1,0,200,"Right","NoStop",0,-0.607124589710728,0.265936677758507
2,"175",235,"Right",1,0,1,200,"NoGo","Stop",1,-0.530579165286637,0.265936677758507
2,"176",269.9,"Right",1,1,0,150,"Right","NoStop",0,-0.418803629202921,-0.173023450591161
2,"177",1349.838,"NoGo",NA,1,0,150,"NoGo","Stop",1,3.03995421856716,-0.173023450591161
2,"178",247.7,"Left",1,1,0,200,"Left","NoStop",0,-0.489904400006889,0.265936677758507
2,"179",323.6,"Right",1,1,0,200,"Right","NoStop",0,-0.246816629555484,0.265936677758507
2,"180",1299.833,"NoGo",NA,1,0,200,"NoGo","Stop",1,2.87980133369993,0.265936677758507
2,"181",250.6,"Left",1,1,0,250,"Left","NoStop",0,-0.480616461478443,0.704896806108174
2,"182",161.5,"Left",1,1,0,250,"Left","NoStop",0,-0.765980365921396,0.704896806108174
2,"183",213.7,"Left",1,1,0,250,"Left","NoStop",0,-0.598797472409363,0.704896806108174
2,"184",312.9,"Left",1,1,0,250,"Left","NoStop",0,-0.281085919988028,0.704896806108174
2,"185",358.2,"Right",1,1,0,250,"Right","NoStop",0,-0.136001914698849,0.704896806108174
2,"186",243.8,"Left",1,1,0,250,"Left","NoStop",0,-0.502395075958937,0.704896806108174
2,"187",1249.808,"NoGo",NA,1,0,250,"NoGo","Stop",1,2.71958439408423,0.704896806108174
2,"188",128.2,"Left",1,1,0,300,"Left","NoStop",0,-0.872631522127348,1.14385693445784
2,"189",152.8,"Right",1,1,0,300,"Right","NoStop",0,-0.793844181506735,1.14385693445784
2,"190",240.5,"Left",1,1,0,300,"Left","NoStop",0,-0.512964109456825,1.14385693445784
2,"191",111.5,"Left",1,1,0,300,"Left","NoStop",0,-0.926117237101504,1.14385693445784
2,"192",209.5,"Right",1,0,1,300,"NoGo","Stop",1,-0.612248969588492,1.14385693445784
2,"193",255.1,"Right",1,1,0,250,"Right","NoStop",0,-0.466204143072233,0.704896806108174
2,"194",304,"Right",1,1,0,250,"Right","NoStop",0,-0.309590283058087,0.704896806108174
2,"195",280.4,"Left",1,1,0,250,"Left","NoStop",0,-0.385174886255098,0.704896806108174
2,"196",183.4,"Right",1,1,0,250,"Right","NoStop",0,-0.695840416344508,0.704896806108174
2,"197",1249.819,"NoGo",NA,1,0,250,"NoGo","Stop",1,2.71961962419589,0.704896806108174
2,"198",159.6,"Right",1,0,1,300,"NoGo","Stop",1,-0.77206556702624,1.14385693445784
2,"199",367.2,"Right",1,1,0,250,"Right","NoStop",0,-0.10717727788643,0.704896806108174
2,"200",227.6,"Left",1,0,1,250,"NoGo","Stop",1,-0.554279422221293,0.704896806108174
2,"201",1299.885,"NoGo",NA,1,0,200,"NoGo","Stop",1,2.87996787604596,0.265936677758507
2,"202",288.1,"Right",1,1,0,250,"Right","NoStop",0,-0.360513808093361,0.704896806108174
2,"203",344.5,"Right",1,1,0,250,"Right","NoStop",0,-0.179879417402199,0.704896806108174
2,"204",242.5,"Right",1,1,0,250,"Right","NoStop",0,-0.50655863460962,0.704896806108174
2,"205",409.9,"Left",1,1,0,250,"Left","NoStop",0,0.0295796101013828,0.704896806108174
2,"206",199.3,"Left",1,0,1,250,"NoGo","Stop",1,-0.644916891309234,0.704896806108174
2,"207",573.9,"Left",1,1,0,200,"Left","NoStop",0,0.554828547572139,0.265936677758507
2,"208",464,"Left",1,1,0,200,"Left","NoStop",0,0.20284770471826,0.265936677758507
2,"209",404.9,"Right",1,1,0,200,"Right","NoStop",0,0.0135659229833719,0.265936677758507
2,"210",349.9,"Left",1,1,0,200,"Left","NoStop",0,-0.162584635314747,0.265936677758507
2,"211",1299.817,"NoGo",NA,1,0,200,"NoGo","Stop",1,2.87975008990115,0.265936677758507
2,"212",350.3,"Right",1,1,0,250,"Right","NoStop",0,-0.161303540345306,0.704896806108174
2,"213",331.2,"Left",1,1,0,250,"Left","NoStop",0,-0.222475825136108,0.704896806108174
2,"214",450.3,"Left",1,1,0,250,"Left","NoStop",0,0.158970202014911,0.704896806108174
2,"215",268.1,"Right",1,1,0,250,"Right","NoStop",0,-0.424568556565405,0.704896806108174
2,"216",247.7,"Right",1,1,0,250,"Right","NoStop",0,-0.489904400006889,0.704896806108174
2,"217",363.8,"Left",1,1,0,250,"Left","NoStop",0,-0.118066585126677,0.704896806108174
2,"218",275.3,"Left",1,1,0,250,"Left","NoStop",0,-0.401508847115469,0.704896806108174
2,"219",1249.982,"NoGo",NA,1,0,250,"NoGo","Stop",1,2.72014167039594,0.704896806108174
2,"220",239.3,"Left",1,1,0,300,"Left","NoStop",0,-0.516807394365147,1.14385693445784
2,"221",312,"Left",1,1,0,300,"Left","NoStop",0,-0.28396838366927,1.14385693445784
2,"222",1199.996,"NoGo",NA,1,0,300,"NoGo","Stop",1,2.56004963753976,1.14385693445784
2,"223",134.3,"Left",1,0,1,350,"NoGo","Stop",1,-0.853094823843375,1.58281706280751
2,"224",1199.79,"NoGo",NA,1,0,300,"NoGo","Stop",1,2.5593898736305,1.14385693445784
2,"225",83.80000001,"Right",1,1,0,350,"Right","NoStop",0,-1.01483306370326,1.58281706280751
2,"226",251.1,"Right",1,0,1,350,"NoGo","Stop",1,-0.479015092766642,1.58281706280751
2,"227",1200.048,"NoGo",NA,1,0,300,"NoGo","Stop",1,2.56021617988579,1.14385693445784
2,"228",200.5,"Right",1,1,0,350,"Right","NoStop",0,-0.641073606400911,1.58281706280751
2,"229",310.6,"Right",1,1,0,350,"Right","NoStop",0,-0.288452216062312,1.58281706280751
2,"230",1149.904,"NoGo",NA,1,0,350,"NoGo","Stop",1,2.39961811451668,1.58281706280751
2,"231",105.8,"Left",1,0,1,400,"NoGo","Stop",1,-0.944372840416037,2.02177719115717
2,"232",366.2,"Right",1,1,0,350,"Right","NoStop",0,-0.110380015310032,1.58281706280751
2,"233",271,"Right",1,1,0,350,"Right","NoStop",0,-0.415280618036958,1.58281706280751
2,"234",321.1,"Left",1,1,0,350,"Left","NoStop",0,-0.25482347311449,1.58281706280751
2,"235",160.5,"Right",1,0,1,350,"NoGo","Stop",1,-0.769183103344998,1.58281706280751
2,"236",354.5,"Left",1,1,0,300,"Left","NoStop",0,-0.147852043166177,1.14385693445784
2,"237",261,"Right",1,1,0,300,"Right","NoStop",0,-0.44730799227298,1.14385693445784
2,"238",250.2,"Right",1,1,0,300,"Right","NoStop",0,-0.481897556447884,1.14385693445784
2,"239",155.4,"Right",1,1,0,300,"Right","NoStop",0,-0.785517064205369,1.14385693445784
2,"240",1199.798,"NoGo",NA,1,0,300,"NoGo","Stop",1,2.55941549552989,1.14385693445784
3,"1",137.3,"Right",1,1,0,250,"Right","NoStop",0,-0.843486611572568,0.704896806108174
3,"2",156.1,"Right",1,1,0,250,"Right","NoStop",0,-0.783275148008848,0.704896806108174
3,"3",155.6,"Right",1,1,0,250,"Right","NoStop",0,-0.784876516720649,0.704896806108174
3,"4",111.1,"Right",1,0,1,250,"NoGo","Stop",1,-0.927398332070945,0.704896806108174
3,"5",314.2,"Left",1,1,0,200,"Left","NoStop",0,-0.276922361337345,0.265936677758507
3,"6",431.1999999,"Right",1,0,1,200,"NoGo","Stop",1,0.0977979169038354,0.265936677758507
3,"7",510,"Right",1,1,0,150,"Right","NoStop",0,0.35017362620396,-0.173023450591161
3,"8",1349.587,"NoGo",NA,1,0,150,"NoGo","Stop",1,3.03915033147383,-0.173023450591161
3,"9",1299.548,"NoGo",NA,1,0,200,"NoGo","Stop",1,2.87888855353421,0.265936677758507
3,"10",290.9,"Right",1,1,0,250,"Right","NoStop",0,-0.351546143307275,0.704896806108174
3,"11",251.6,"Right",1,0,1,250,"NoGo","Stop",1,-0.477413724054841,0.704896806108174
3,"12",1299.613,"NoGo",NA,1,0,200,"NoGo","Stop",1,2.87909673146674,0.265936677758507
3,"13",410.9,"Right",1,1,0,250,"Right","NoStop",0,0.0327823475249849,0.704896806108174
3,"14",132.2,"Right",1,1,0,250,"Right","NoStop",0,-0.85982057243294,0.704896806108174
3,"15",375.3000001,"Left",1,1,0,250,"Left","NoStop",0,-0.0812351044349785,0.704896806108174
3,"16",235.6,"Left",1,1,0,250,"Left","NoStop",0,-0.528657522832475,0.704896806108174
3,"17",400.7,"Right",1,1,0,250,"Right","NoStop",0,0.000114425804242861,0.704896806108174
3,"18",105.7,"Right",1,1,0,250,"Right","NoStop",0,-0.944693114158397,0.704896806108174
3,"19",260.5,"Right",1,1,0,250,"Right","NoStop",0,-0.448909360984781,0.704896806108174
3,"20",367.6999999,"Left",1,1,0,250,"Left","NoStop",0,-0.105575909494902,0.704896806108174
3,"21",1249.483,"NoGo",NA,1,0,250,"NoGo","Stop",1,2.71854350442156,0.704896806108174
3,"22",296.7,"Right",1,1,0,300,"Right","NoStop",0,-0.332970266250383,1.14385693445784
3,"23",42.5,"Left",1,1,0,300,"Left","NoStop",0,-1.14710611933005,1.14385693445784
3,"24",132.9,"Right",1,1,0,300,"Right","NoStop",0,-0.857578656236418,1.14385693445784
3,"25",102.9,"Left",1,0,1,300,"NoGo","Stop",1,-0.953660778944483,1.14385693445784
3,"26",432.3,"Left",1,1,0,250,"Left","NoStop",0,0.101320928390071,0.704896806108174
3,"27",142.4,"Right",1,1,0,250,"Right","NoStop",0,-0.827152650712197,0.704896806108174
3,"28",339.2,"Right",1,1,0,250,"Right","NoStop",0,-0.196853925747291,0.704896806108174
3,"29",565.3000001,"Right",1,1,0,250,"Right","NoStop",0,0.527285006049434,0.704896806108174
3,"30",224.1,"Left",1,1,0,250,"Left","NoStop",0,-0.5654890032039,0.704896806108174
3,"31",270.6,"Left",1,1,0,250,"Left","NoStop",0,-0.416561713006399,0.704896806108174
3,"32",242.4,"Right",1,1,0,250,"Right","NoStop",0,-0.50687890835198,0.704896806108174
3,"33",183.8,"Left",1,1,0,250,"Left","NoStop",0,-0.694559321375067,0.704896806108174
3,"34",407.9000001,"Right",1,1,0,250,"Right","NoStop",0,0.0231741355744523,0.704896806108174
3,"35",1249.522,"NoGo",NA,1,0,250,"NoGo","Stop",1,2.71866841118108,0.704896806108174
3,"36",112.9,"Left",1,1,0,300,"Left","NoStop",0,-0.921633404708461,1.14385693445784
3,"37",106.1,"Left",1,1,0,300,"Left","NoStop",0,-0.943412019188956,1.14385693445784
3,"38",251.1,"Right",1,1,0,300,"Right","NoStop",0,-0.479015092766642,1.14385693445784
3,"39",184,"Left",1,1,0,300,"Left","NoStop",0,-0.693918773890347,1.14385693445784
3,"40",246.6,"Right",1,1,0,300,"Right","NoStop",0,-0.493427411172851,1.14385693445784
3,"41",183.1999999,"Right",1,1,0,300,"Right","NoStop",0,-0.696480964149503,1.14385693445784
3,"42",300.2,"Left",1,1,0,300,"Left","NoStop",0,-0.321760685267775,1.14385693445784
3,"43",1199.494,"NoGo",NA,1,0,300,"NoGo","Stop",1,2.55844186335311,1.14385693445784
3,"44",32.0999999,"Left",1,1,0,350,"Left","NoStop",0,-1.18041458885579,1.58281706280751
3,"45",252.3000001,"Left",1,1,0,350,"Left","NoStop",0,-0.475171807538045,1.58281706280751
3,"46",1149.547,"NoGo",NA,1,0,350,"NoGo","Stop",1,2.39847473725646,1.58281706280751
3,"47",90,"Left",1,1,0,400,"Left","NoStop",0,-0.994976091708951,2.02177719115717
3,"48",41.19999993,"Right",1,1,0,400,"Right","NoStop",0,-1.15126967820493,2.02177719115717
3,"49",84.5,"Left",1,0,1,400,"NoGo","Stop",1,-1.01259114753876,2.02177719115717
3,"50",156.2,"Left",1,1,0,350,"Left","NoStop",0,-0.782954874266487,1.58281706280751
3,"51",215.6999999,"Left",1,1,0,350,"Left","NoStop",0,-0.592391997882432,1.58281706280751
3,"52",164.8000001,"Right",1,1,0,350,"Right","NoStop",0,-0.755411332103235,1.58281706280751
3,"53",114.1,"Left",1,0,1,350,"NoGo","Stop",1,-0.917790119800139,1.58281706280751
3,"54",136.9,"Left",1,1,0,300,"Left","NoStop",0,-0.844767706542009,1.14385693445784
3,"55",143.9,"Left",1,1,0,300,"Left","NoStop",0,-0.822348544576794,1.14385693445784
3,"56",142.4,"Right",1,1,0,300,"Right","NoStop",0,-0.827152650712197,1.14385693445784
3,"57",156.6999999,"Right",1,1,0,300,"Right","NoStop",0,-0.78135350587496,1.14385693445784
3,"58",278.2,"Left",1,1,0,300,"Left","NoStop",0,-0.392220908587023,1.14385693445784
3,"59",110.5,"Right",1,1,0,300,"Right","NoStop",0,-0.929319974525107,1.14385693445784
3,"60",178,"Left",1,1,0,300,"Left","NoStop",0,-0.71313519843196,1.14385693445784
3,"61",1013.1,"Right",1,1,0,300,"Right","NoStop",0,1.96147082401821,1.14385693445784
3,"62",80.60000002,"Right",1,0,1,300,"NoGo","Stop",1,-1.02508182342676,1.14385693445784
3,"63",266.1999999,"Left",1,1,0,250,"Left","NoStop",0,-0.430653757990523,0.704896806108174
3,"64",158.9,"Left",1,1,0,250,"Left","NoStop",0,-0.774307483222762,0.704896806108174
3,"65",122.4,"Left",1,1,0,250,"Left","NoStop",0,-0.891207399184241,0.704896806108174
3,"66",49.29999995,"Left",1,1,0,250,"Left","NoStop",0,-1.1253275050097,0.704896806108174
3,"67",234.8000001,"Right",1,1,0,250,"Right","NoStop",0,-0.531219712451083,0.704896806108174
3,"68",382.3,"Right",1,1,0,250,"Right","NoStop",0,-0.058815942790037,0.704896806108174
3,"69",99.69999993,"Right",1,1,0,250,"Right","NoStop",0,-0.963909538924202,0.704896806108174
3,"70",169.1,"Left",1,1,0,250,"Left","NoStop",0,-0.741639561502019,0.704896806108174
3,"71",197.1999999,"Right",1,1,0,250,"Right","NoStop",0,-0.651642640219072,0.704896806108174
3,"72",44.29999995,"Right",1,0,1,250,"NoGo","Stop",1,-1.14134119212771,0.704896806108174
3,"73",179.8,"Left",1,1,0,200,"Left","NoStop",0,-0.707370271069476,0.265936677758507
3,"74",139.8,"Left",1,1,0,200,"Left","NoStop",0,-0.835479768013563,0.265936677758507
3,"75",193.3,"Right",1,1,0,200,"Right","NoStop",0,-0.664133315850847,0.265936677758507
3,"76",145.2,"Left",1,1,0,200,"Left","NoStop",0,-0.818184985926111,0.265936677758507
3,"77",363.5999999,"Right",1,1,0,200,"Right","NoStop",0,-0.118707132931671,0.265936677758507
3,"78",224.8,"Right",1,1,0,200,"Right","NoStop",0,-0.563247087007379,0.265936677758507
3,"79",148.6999999,"Left",1,1,0,200,"Left","NoStop",0,-0.806975405263777,0.265936677758507
3,"80",178.1,"Right",1,0,1,200,"NoGo","Stop",1,-0.7128149246896,0.265936677758507
3,"81",219.4,"Left",1,1,0,150,"Left","NoStop",0,-0.58054186909483,-0.173023450591161
3,"82",213.8000001,"Right",1,1,0,150,"Right","NoStop",0,-0.598477198346729,-0.173023450591161
3,"83",428.3,"Left",1,1,0,150,"Left","NoStop",0,0.0885099786956628,-0.173023450591161
3,"84",218,"Right",1,1,0,150,"Right","NoStop",0,-0.585025701487873,-0.173023450591161
3,"85",193.4,"Left",1,0,1,150,"NoGo","Stop",1,-0.663813042108487,-0.173023450591161
3,"86",1399.861,"NoGo",NA,1,0,100,"NoGo","Stop",1,3.20016475270801,-0.611983578940828
3,"87",246.4,"Right",1,1,0,150,"Right","NoStop",0,-0.494067958657572,-0.173023450591161
3,"88",202.3,"Right",1,1,0,150,"Right","NoStop",0,-0.635308679038427,-0.173023450591161
3,"89",215.7,"Right",1,1,0,150,"Right","NoStop",0,-0.592391997562158,-0.173023450591161
3,"90",203.5,"Right",1,1,0,150,"Right","NoStop",0,-0.631465394130105,-0.173023450591161
3,"91",276.1999999,"Left",1,1,0,150,"Left","NoStop",0,-0.398626383754501,-0.173023450591161
3,"92",352.0999999,"Right",1,1,0,150,"Right","NoStop",0,-0.155538613303096,-0.173023450591161
3,"93",1349.506,"NoGo",NA,1,0,150,"NoGo","Stop",1,3.03889090974252,-0.173023450591161
3,"94",142.1,"Right",1,1,0,200,"Right","NoStop",0,-0.828113471939278,0.265936677758507
3,"95",158.7,"Right",1,0,1,200,"NoGo","Stop",1,-0.774948030707482,0.265936677758507
3,"96",631.8000001,"Right",1,0,1,150,"Left","NoStop",0,0.740267044718978,-0.173023450591161
3,"97",202,"Right",1,1,0,150,"Right","NoStop",0,-0.636269500265508,-0.173023450591161
3,"98",532.5,"Left",1,1,0,150,"Left","NoStop",0,0.422235218235009,-0.173023450591161
3,"99",217.4,"Left",1,1,0,150,"Left","NoStop",0,-0.586947343942035,-0.173023450591161
3,"100",269.4,"Right",1,1,0,150,"Right","NoStop",0,-0.420404997914722,-0.173023450591161
3,"101",196.2,"Right",1,1,0,150,"Right","NoStop",0,-0.654845377322401,-0.173023450591161
3,"102",245.4,"Left",1,1,0,150,"Left","NoStop",0,-0.497270696081174,-0.173023450591161
3,"103",194.8000001,"Right",1,0,1,150,"NoGo","Stop",1,-0.65932920939517,-0.173023450591161
3,"104",212.0999999,"Right",1,1,0,100,"Right","NoStop",0,-0.6039218526074,-0.611983578940828
3,"105",294.6,"Left",1,1,0,100,"Left","NoStop",0,-0.339696014839947,-0.611983578940828
3,"106",290.8000001,"Left",1,1,0,100,"Left","NoStop",0,-0.351866416729362,-0.611983578940828
3,"107",269.1,"Right",1,1,0,100,"Right","NoStop",0,-0.421365819141802,-0.611983578940828
3,"108",453,"Left",1,1,0,100,"Left","NoStop",0,0.167617593058636,-0.611983578940828
3,"109",203.5,"Right",1,0,1,100,"NoGo","Stop",1,-0.631465394130105,-0.611983578940828
3,"110",317.3,"Right",1,1,0,50,"Right","NoStop",0,-0.266993875324178,-1.05094370729049
3,"111",382.4,"Right",1,1,0,50,"Right","NoStop",0,-0.0584956690476769,-1.05094370729049
3,"112",1449.484,"NoGo",NA,1,0,50,"NoGo","Stop",1,3.35909419187942,-1.05094370729049
3,"113",424.0999999,"Left",1,1,0,100,"Left","NoStop",0,0.0750584811962599,-0.611983578940828
3,"114",209.6,"Right",1,1,0,100,"Right","NoStop",0,-0.611928695846132,-0.611983578940828
3,"115",1399.33,"NoGo",NA,1,0,100,"NoGo","Stop",1,3.19846409913608,-0.611983578940828
3,"116",258.4,"Right",1,0,1,150,"NoGo","Stop",1,-0.455635109574346,-0.173023450591161
3,"117",490.3000001,"Left",1,1,0,100,"Left","NoStop",0,0.287079699279271,-0.611983578940828
3,"118",351.4,"Right",1,1,0,100,"Right","NoStop",0,-0.157780529179344,-0.611983578940828
3,"119",256.2,"Right",1,1,0,100,"Right","NoStop",0,-0.462681131906271,-0.611983578940828
3,"120",246.0999999,"Right",1,1,0,100,"Right","NoStop",0,-0.495028780204926,-0.611983578940828
3,"121",1095.9,"Right",1,1,0,100,"Right","NoStop",0,2.22665748269247,-0.611983578940828
3,"122",240,"Right",1,1,0,100,"Right","NoStop",0,-0.514565478168626,-0.611983578940828
3,"123",234.3,"Right",1,1,0,100,"Right","NoStop",0,-0.532821081483158,-0.611983578940828
3,"124",341.4,"Left",1,0,1,100,"NoGo","Stop",1,-0.189807903415366,-0.611983578940828
3,"125",391.6,"Right",1,1,0,50,"Right","NoStop",0,-0.0290304847505368,-1.05094370729049
3,"126",330.3000001,"Right",1,1,0,50,"Right","NoStop",0,-0.225358288497076,-1.05094370729049
3,"127",452.6999999,"Left",1,1,0,50,"Left","NoStop",0,0.166656771511282,-1.05094370729049
3,"128",335,"Right",1,1,0,50,"Right","NoStop",0,-0.21030542292642,-1.05094370729049
3,"129",327.1,"Left",1,1,0,50,"Left","NoStop",0,-0.235607048572877,-1.05094370729049
3,"130",1449.283,"NoGo",NA,1,0,50,"NoGo","Stop",1,3.35845044165728,-1.05094370729049
3,"131",328.7,"Left",1,1,0,100,"Left","NoStop",0,-0.230482668695113,-0.611983578940828
3,"132",283.6,"Left",1,1,0,100,"Left","NoStop",0,-0.374926126499571,-0.611983578940828
3,"133",1399.487,"NoGo",NA,1,0,100,"NoGo","Stop",1,3.19896692891158,-0.611983578940828
3,"134",248.3000001,"Right",1,1,0,150,"Right","NoStop",0,-0.487982757232454,-0.173023450591161
3,"135",285.7,"Left",1,1,0,150,"Left","NoStop",0,-0.368200377910007,-0.173023450591161
3,"136",267.4000001,"Left",1,1,0,150,"Left","NoStop",0,-0.426810472441652,-0.173023450591161
3,"137",370.2,"Right",1,1,0,150,"Right","NoStop",0,-0.0975690656156233,-0.173023450591161
3,"138",248.5,"Right",1,0,1,150,"NoGo","Stop",1,-0.487342210068007,-0.173023450591161
3,"139",294.5,"Right",1,1,0,100,"Right","NoStop",0,-0.340016288582307,-0.611983578940828
3,"140",271.2,"Left",1,1,0,100,"Left","NoStop",0,-0.414640070552238,-0.611983578940828
3,"141",351.6999999,"Right",1,1,0,100,"Right","NoStop",0,-0.156819708272537,-0.611983578940828
3,"142",1399.534,"NoGo",NA,1,0,100,"NoGo","Stop",1,3.19911745757049,-0.611983578940828
3,"143",233.9,"Right",1,1,0,150,"Right","NoStop",0,-0.534102176452599,-0.173023450591161
3,"144",362,"Right",1,1,0,150,"Right","NoStop",0,-0.123831512489161,-0.173023450591161
3,"145",263.1,"Left",1,1,0,150,"Left","NoStop",0,-0.440582243683415,-0.173023450591161
3,"146",382.1,"Right",1,1,0,150,"Right","NoStop",0,-0.0594564902747574,-0.173023450591161
3,"147",319.9,"Left",1,1,0,150,"Left","NoStop",0,-0.258666758022812,-0.173023450591161
3,"148",276.8000001,"Right",1,0,1,150,"NoGo","Stop",1,-0.396704740659792,-0.173023450591161
3,"149",416.1999999,"Right",1,1,0,100,"Right","NoStop",0,0.0497568555498029,-0.611983578940828
3,"150",357.6,"Left",1,1,0,100,"Left","NoStop",0,-0.137923557153011,-0.611983578940828
3,"151",295.4000001,"Right",1,1,0,100,"Right","NoStop",0,-0.337133824580792,-0.611983578940828
3,"152",1399.34,"NoGo",NA,1,0,100,"NoGo","Stop",1,3.19849612651031,-0.611983578940828
3,"153",278,"Right",1,1,0,150,"Right","NoStop",0,-0.392861456071743,-0.173023450591161
3,"154",307.5,"Left",1,1,0,150,"Left","NoStop",0,-0.298380702075479,-0.173023450591161
3,"155",189.0999999,"Right",1,1,0,150,"Right","NoStop",0,-0.67758481335025,-0.173023450591161
3,"156",190.3,"Right",1,0,1,150,"NoGo","Stop",1,-0.673741528121653,-0.173023450591161
3,"157",330.1,"Left",1,1,0,100,"Left","NoStop",0,-0.22599883630207,-0.611983578940828
3,"158",292.7,"Left",1,1,0,100,"Left","NoStop",0,-0.345781215944791,-0.611983578940828
3,"159",282.9,"Left",1,1,0,100,"Left","NoStop",0,-0.377168042696093,-0.611983578940828
3,"160",1399.552,"NoGo",NA,1,0,100,"NoGo","Stop",1,3.19917510684412,-0.611983578940828
3,"161",1349.103,"NoGo",NA,1,0,150,"NoGo","Stop",1,3.03760020656081,-0.173023450591161
3,"162",159.6,"Right",1,1,0,200,"Right","NoStop",0,-0.77206556702624,0.265936677758507
3,"163",164.3,"Right",1,0,1,200,"NoGo","Stop",1,-0.75701270113531,0.265936677758507
3,"164",1349.367,"NoGo",NA,1,0,150,"NoGo","Stop",1,3.03844572924064,-0.173023450591161
3,"165",229.4,"Right",1,1,0,200,"Right","NoStop",0,-0.548514494858809,0.265936677758507
3,"166",1299.444,"NoGo",NA,1,0,200,"NoGo","Stop",1,2.87855546884215,0.265936677758507
3,"167",177.5,"Right",1,0,1,250,"NoGo","Stop",1,-0.714736567143761,0.704896806108174
3,"168",245.8000001,"Left",1,1,0,200,"Left","NoStop",0,-0.495989600791459,0.265936677758507
3,"169",243.5,"Left",1,1,0,200,"Left","NoStop",0,-0.503355897186018,0.265936677758507
3,"170",259.0999999,"Right",1,1,0,200,"Right","NoStop",0,-0.453393193698098,0.265936677758507
3,"171",311.6,"Left",1,1,0,200,"Left","NoStop",0,-0.28524947863871,0.265936677758507
3,"172",168.9,"Left",1,1,0,200,"Left","NoStop",0,-0.74228010898674,0.265936677758507
3,"173",197.8,"Left",1,1,0,200,"Left","NoStop",0,-0.649720997444637,0.265936677758507
3,"174",730,"Left",1,1,0,200,"Left","NoStop",0,1.05477585939644,0.265936677758507
3,"175",340.2,"Left",1,1,0,200,"Left","NoStop",0,-0.193651188323688,0.265936677758507
3,"176",1299.17,"NoGo",NA,1,0,200,"NoGo","Stop",1,2.87767791878808,0.265936677758507
3,"177",176.2,"Left",1,1,0,250,"Left","NoStop",0,-0.718900125794444,0.704896806108174
3,"178",133.6,"Left",1,1,0,250,"Left","NoStop",0,-0.855336740039896,0.704896806108174
3,"179",178,"Right",1,1,0,250,"Right","NoStop",0,-0.71313519843196,0.704896806108174
3,"180",194.6999999,"Left",1,1,0,250,"Left","NoStop",0,-0.659649483778078,0.704896806108174
3,"181",169.5,"Left",1,1,0,250,"Left","NoStop",0,-0.740358466532579,0.704896806108174
3,"182",118.9000001,"Right",1,0,1,250,"NoGo","Stop",1,-0.902416979846575,0.704896806108174
3,"183",205,"Right",1,1,0,200,"Right","NoStop",0,-0.626661287994702,0.265936677758507
3,"184",188.1999999,"Left",1,1,0,200,"Left","NoStop",0,-0.680467277031492,0.265936677758507
3,"185",175.1999999,"Left",1,1,0,200,"Left","NoStop",0,-0.72210286353832,0.265936677758507
3,"186",184,"Right",1,1,0,200,"Right","NoStop",0,-0.693918773890347,0.265936677758507
3,"187",167.7,"Right",1,0,1,200,"NoGo","Stop",1,-0.746123393895063,0.265936677758507
3,"188",246.1999999,"Left",1,0,1,150,"NoGo","Stop",1,-0.494708506462566,-0.173023450591161
3,"189",519,"Left",1,1,0,100,"Left","NoStop",0,0.37899826301638,-0.611983578940828
3,"190",1399.773,"NoGo",NA,1,0,100,"NoGo","Stop",1,3.19988291181473,-0.611983578940828
3,"191",223.4,"Right",1,1,0,150,"Right","NoStop",0,-0.567730919400422,-0.173023450591161
3,"192",1349.713,"NoGo",NA,1,0,150,"NoGo","Stop",1,3.03955387638921,-0.173023450591161
3,"193",236.8,"Left",1,1,0,200,"Left","NoStop",0,-0.524814237924153,0.265936677758507
3,"194",182.1,"Left",1,0,1,200,"NoGo","Stop",1,-0.700003974995191,0.265936677758507
3,"195",325.0999999,"Right",1,1,0,150,"Right","NoStop",0,-0.242012523740355,-0.173023450591161
3,"196",1349.748,"NoGo",NA,1,0,150,"NoGo","Stop",1,3.03966597219903,-0.173023450591161
3,"197",216.1999999,"Left",1,1,0,200,"Left","NoStop",0,-0.590790629170631,0.265936677758507
3,"198",179.9000001,"Left",1,0,1,200,"NoGo","Stop",1,-0.707049997006842,0.265936677758507
3,"199",350.4,"Left",1,1,0,150,"Left","NoStop",0,-0.160983266602946,-0.173023450591161
3,"200",204,"Left",1,1,0,150,"Left","NoStop",0,-0.629864025418304,-0.173023450591161
3,"201",212,"Left",1,0,1,150,"NoGo","Stop",1,-0.604242126029486,-0.173023450591161
3,"202",328.5,"Right",1,0,1,100,"NoGo","Stop",1,-0.231123216179834,-0.611983578940828
3,"203",382.4,"Left",1,1,0,50,"Left","NoStop",0,-0.0584956690476769,-1.05094370729049
3,"204",340.4,"Right",1,1,0,50,"Right","NoStop",0,-0.193010640838968,-1.05094370729049
3,"205",1449.672,"NoGo",NA,1,0,50,"NoGo","Stop",1,3.35969630651506,-1.05094370729049
3,"206",278.2,"Right",1,1,0,100,"Right","NoStop",0,-0.392220908587023,-0.611983578940828
3,"207",344.9,"Right",1,1,0,100,"Right","NoStop",0,-0.178598322432758,-0.611983578940828
3,"208",367.5999999,"Right",1,1,0,100,"Right","NoStop",0,-0.105896183237263,-0.611983578940828
3,"209",1399.548,"NoGo",NA,1,0,100,"NoGo","Stop",1,3.19916229589442,-0.611983578940828
3,"210",281.4,"Right",1,1,0,150,"Right","NoStop",0,-0.381972148831496,-0.173023450591161
3,"211",1349.436,"NoGo",NA,1,0,150,"NoGo","Stop",1,3.03866671812287,-0.173023450591161
3,"212",382,"Left",1,1,0,200,"Left","NoStop",0,-0.0597767640171177,0.265936677758507
3,"213",177.2,"Right",1,1,0,200,"Right","NoStop",0,-0.715697388370842,0.265936677758507
3,"214",304.5,"Left",1,1,0,200,"Left","NoStop",0,-0.307988914346286,0.265936677758507
3,"215",200.1,"Right",1,1,0,200,"Right","NoStop",0,-0.642354701370352,0.265936677758507
3,"216",197.9,"Left",1,1,0,200,"Left","NoStop",0,-0.649400723702277,0.265936677758507
3,"217",155.5,"Left",1,0,1,200,"NoGo","Stop",1,-0.785196790463009,0.265936677758507
3,"218",266.2,"Left",1,1,0,150,"Left","NoStop",0,-0.430653757670249,-0.173023450591161
3,"219",197.5,"Left",1,1,0,150,"Left","NoStop",0,-0.650681818671718,-0.173023450591161
3,"220",276.9,"Right",1,1,0,150,"Right","NoStop",0,-0.396384467237706,-0.173023450591161
3,"221",1350.279,"NoGo",NA,1,0,150,"NoGo","Stop",1,3.04136662577097,-0.173023450591161
3,"222",249.5,"Left",1,1,0,200,"Left","NoStop",0,-0.484139472644405,0.265936677758507
3,"223",160.5,"Left",1,0,1,200,"NoGo","Stop",1,-0.769183103344998,0.265936677758507
3,"224",248.5999999,"Left",1,1,0,150,"Left","NoStop",0,-0.487021936645921,-0.173023450591161
3,"225",1349.489,"NoGo",NA,1,0,150,"NoGo","Stop",1,3.03883646320632,-0.173023450591161
3,"226",375,"Left",1,1,0,200,"Left","NoStop",0,-0.0821959259823328,0.265936677758507
3,"227",272.5999999,"Right",1,1,0,200,"Right","NoStop",0,-0.410156238479469,0.265936677758507
3,"228",447.5,"Left",1,1,0,200,"Left","NoStop",0,0.150002537228824,0.265936677758507
3,"229",1299.546,"NoGo",NA,1,0,200,"NoGo","Stop",1,2.87888214805936,0.265936677758507
3,"230",153.3000001,"Left",1,1,0,250,"Left","NoStop",0,-0.79224281247466,0.704896806108174
3,"231",322.3000001,"Right",1,1,0,250,"Right","NoStop",0,-0.250980187885893,0.704896806108174
3,"232",1249.077,"NoGo",NA,0,1,250,"Right","NoStop",0,2.71724319302758,0.704896806108174
3,"233",323.8,"Right",1,1,0,250,"Right","NoStop",0,-0.246176082070764,0.704896806108174
3,"234",183.6,"Right",1,0,1,250,"NoGo","Stop",1,-0.695199868859788,0.704896806108174
3,"235",215.1,"Left",1,1,0,200,"Left","NoStop",0,-0.59431364001632,0.265936677758507
3,"236",258.0999999,"Left",1,0,1,200,"NoGo","Stop",1,-0.4565959311217,0.265936677758507
3,"237",355.7,"Right",1,1,0,150,"Right","NoStop",0,-0.144008758257855,-0.173023450591161
3,"238",1349.095,"NoGo",NA,0,1,150,"Left","NoStop",0,3.03757458466142,-0.173023450591161
3,"239",277.4,"Left",1,1,0,150,"Left","NoStop",0,-0.394783098525905,-0.173023450591161
3,"240",682.4,"Left",1,1,0,150,"Left","NoStop",0,0.902325558032974,-0.173023450591161
4,"1",36,"Right",1,1,0,250,"Right","NoStop",0,-1.16792391258347,0.704896806108174
4,"2",41.5,"Right",1,0,1,250,"NoGo","Stop",1,-1.15030885675366,0.704896806108174
4,"3",137.7,"Left",1,0,1,200,"NoGo","Stop",1,-0.842205516603128,0.265936677758507
4,"4",45.5,"Right",1,0,1,150,"Left","NoStop",0,-1.13749790705925,-0.173023450591161
4,"5",183.9,"Left",1,0,1,150,"NoGo","Stop",1,-0.694239047632707,-0.173023450591161
4,"6",314.2,"Left",1,1,0,100,"Left","NoStop",0,-0.276922361337345,-0.611983578940828
4,"7",187,"Left",1,1,0,100,"Left","NoStop",0,-0.684310561619541,-0.611983578940828
4,"8",170.1,"Left",1,0,1,100,"NoGo","Stop",1,-0.738436824078417,-0.611983578940828
4,"9",281.6,"Right",1,1,0,50,"Right","NoStop",0,-0.381331601346775,-1.05094370729049
4,"10",226.3,"Right",1,0,1,50,"Left","NoStop",0,-0.558442980871975,-1.05094370729049
4,"11",274.3,"Right",1,1,0,50,"Right","NoStop",0,-0.404711584539071,-1.05094370729049
4,"12",194.3,"Left",1,1,0,50,"Left","NoStop",0,-0.660930578427245,-1.05094370729049
4,"13",236,"Right",1,1,0,50,"Right","NoStop",0,-0.527376427863034,-1.05094370729049
4,"14",217.5,"Left",1,1,0,50,"Left","NoStop",0,-0.586627070199675,-1.05094370729049
4,"15",234.6,"Left",1,1,0,50,"Left","NoStop",0,-0.531860260256077,-1.05094370729049
4,"16",198.6,"Left",1,0,1,50,"Right","NoStop",0,-0.647158807505755,-1.05094370729049
4,"17",285.4,"Right",1,1,0,50,"Right","NoStop",0,-0.369161199137087,-1.05094370729049
4,"18",227.7,"Left",1,1,0,50,"Left","NoStop",0,-0.553959148478932,-1.05094370729049
4,"19",233.6,"Right",1,1,0,50,"Right","NoStop",0,-0.53506299767968,-1.05094370729049
4,"20",347.9,"Right",1,1,0,50,"Right","NoStop",0,-0.168990110161952,-1.05094370729049
4,"21",230.3,"Left",1,0,1,50,"NoGo","Stop",1,-0.545632031177567,-1.05094370729049
4,"22",253.5,"Right",1,0,1,50,"NoGo","Stop",1,-0.471328522949996,-1.05094370729049
4,"23",269.1,"Left",1,1,0,50,"Left","NoStop",0,-0.421365819141802,-1.05094370729049
4,"24",216.3,"Right",1,1,0,50,"Right","NoStop",0,-0.590470355107997,-1.05094370729049
4,"25",179,"Left",1,1,0,50,"Left","NoStop",0,-0.709932461008358,-1.05094370729049
4,"26",339.6,"Left",1,1,0,50,"Left","NoStop",0,-0.19557283077785,-1.05094370729049
4,"27",228.5,"Left",1,1,0,50,"Left","NoStop",0,-0.551396958540051,-1.05094370729049
4,"28",467.6,"Right",1,0,1,50,"NoGo","Stop",1,0.214377559443228,-1.05094370729049
4,"29",971.6,"Right",1,0,1,50,"NoGo","Stop",1,1.82855722093872,-1.05094370729049
4,"30",370.3,"Right",1,1,0,50,"Right","NoStop",0,-0.097248791873263,-1.05094370729049
4,"31",804.6,"Right",1,0,1,50,"NoGo","Stop",1,1.29370007119716,-1.05094370729049
4,"32",392.5,"Right",1,1,0,50,"Right","NoStop",0,-0.0261480210692949,-1.05094370729049
4,"33",359,"Left",1,1,0,50,"Left","NoStop",0,-0.133439724759968,-1.05094370729049
4,"34",309,"Left",1,1,0,50,"Left","NoStop",0,-0.293576595940076,-1.05094370729049
4,"35",761.7,"Left",1,0,1,50,"NoGo","Stop",1,1.15630263572463,-1.05094370729049
4,"36",242.9,"Right",1,1,0,50,"Right","NoStop",0,-0.505277539640179,-1.05094370729049
4,"37",281.9,"Right",1,1,0,50,"Right","NoStop",0,-0.380370780119695,-1.05094370729049
4,"38",246.4,"Right",1,1,0,50,"Right","NoStop",0,-0.494067958657572,-1.05094370729049
4,"39",192.5,"Right",1,0,1,50,"Left","NoStop",0,-0.666695505789729,-1.05094370729049
4,"40",349.6,"Left",1,1,0,50,"Left","NoStop",0,-0.163545456541828,-1.05094370729049
4,"41",488.3,"Left",1,0,1,50,"NoGo","Stop",1,0.280674224111793,-1.05094370729049
4,"42",766.4,"Left",1,1,0,50,"Left","NoStop",0,1.17135550161556,-1.05094370729049
4,"43",299.3,"Right",1,1,0,50,"Right","NoStop",0,-0.324643148949017,-1.05094370729049
4,"44",263.9,"Right",1,1,0,50,"Right","NoStop",0,-0.438020053744534,-1.05094370729049
4,"45",196,"Right",1,0,1,50,"Left","NoStop",0,-0.655485924807121,-1.05094370729049
4,"46",847.4,"Left",1,0,1,50,"NoGo","Stop",1,1.43077723292733,-1.05094370729049
4,"47",300.8,"Right",1,1,0,50,"Right","NoStop",0,-0.319839042813614,-1.05094370729049
4,"48",606.3,"Left",1,1,0,50,"Left","NoStop",0,0.658597240096849,-1.05094370729049
4,"49",302.9,"Left",1,1,0,50,"Left","NoStop",0,-0.313113294224049,-1.05094370729049
4,"50",506.6,"Right",1,1,0,50,"Right","NoStop",0,0.339284318963713,-1.05094370729049
4,"51",297.3,"Left",1,1,0,50,"Left","NoStop",0,-0.331048623796221,-1.05094370729049
4,"52",287.5,"Right",1,0,1,50,"NoGo","Stop",1,-0.362435450547523,-1.05094370729049
4,"53",334.3,"Right",1,1,0,50,"Right","NoStop",0,-0.212547339122941,-1.05094370729049
4,"54",274,"Left",1,1,0,50,"Left","NoStop",0,-0.405672405766152,-1.05094370729049
4,"55",333,"Left",1,1,0,50,"Left","NoStop",0,-0.216710897773624,-1.05094370729049
4,"56",307.4,"Right",1,1,0,50,"Right","NoStop",0,-0.29870097581784,-1.05094370729049
4,"57",766.9,"Left",1,0,1,50,"NoGo","Stop",1,1.17295687032736,-1.05094370729049
4,"58",325.3,"Left",1,1,0,50,"Left","NoStop",0,-0.241371975935361,-1.05094370729049
4,"59",285.6,"Left",1,1,0,50,"Left","NoStop",0,-0.368520651652367,-1.05094370729049
4,"60",297.8,"Right",1,1,0,50,"Right","NoStop",0,-0.32944725508442,-1.05094370729049
4,"61",263,"Right",1,1,0,50,"Right","NoStop",0,-0.440902517425776,-1.05094370729049
4,"62",291.9,"Right",1,0,1,50,"NoGo","Stop",1,-0.348343405883673,-1.05094370729049
4,"63",261.2,"Right",1,1,0,50,"Right","NoStop",0,-0.44666744478826,-1.05094370729049
4,"64",265.4,"Right",1,1,0,50,"Right","NoStop",0,-0.433215947609131,-1.05094370729049
4,"65",317.5,"Left",1,1,0,50,"Left","NoStop",0,-0.266353327839458,-1.05094370729049
4,"66",255.6,"Left",1,1,0,50,"Left","NoStop",0,-0.464602774360432,-1.05094370729049
4,"67",327,"Right",1,1,0,50,"Right","NoStop",0,-0.235927322315237,-1.05094370729049
4,"68",736,"Left",1,0,1,50,"NoGo","Stop",1,1.07399228393805,-1.05094370729049
4,"69",331,"Left",1,1,0,50,"Left","NoStop",0,-0.223116372620828,-1.05094370729049
4,"70",333,"Left",1,1,0,50,"Left","NoStop",0,-0.216710897773624,-1.05094370729049
4,"71",318.3,"Right",1,1,0,50,"Right","NoStop",0,-0.263791137900576,-1.05094370729049
4,"72",275.9,"Right",1,1,0,50,"Right","NoStop",0,-0.399587204661308,-1.05094370729049
4,"73",311,"Left",1,0,1,50,"NoGo","Stop",1,-0.287171121092872,-1.05094370729049
4,"74",327.9,"Left",1,1,0,50,"Left","NoStop",0,-0.233044858633995,-1.05094370729049
4,"75",726.4,"Right",1,0,1,50,"NoGo","Stop",1,1.04324600467147,-1.05094370729049
4,"76",374.3,"Left",1,1,0,50,"Left","NoStop",0,-0.0844378421788543,-1.05094370729049
4,"77",283.2,"Left",1,1,0,50,"Left","NoStop",0,-0.376207221469012,-1.05094370729049
4,"78",729.4,"Left",1,0,1,50,"NoGo","Stop",1,1.05285421694228,-1.05094370729049
4,"79",228.1,"Right",1,0,1,50,"Left","NoStop",0,-0.552678053509492,-1.05094370729049
4,"80",306,"Right",1,1,0,50,"Right","NoStop",0,-0.303184808210883,-1.05094370729049
4,"81",299.8,"Left",1,1,0,50,"Left","NoStop",0,-0.323041780237216,-1.05094370729049
4,"82",766.5,"Right",1,0,1,50,"NoGo","Stop",1,1.17167577535792,-1.05094370729049
4,"83",234,"Left",1,0,1,50,"NoGo","Stop",1,-0.533781902710239,-1.05094370729049
4,"84",315.5,"Right",1,1,0,50,"Right","NoStop",0,-0.272758802686662,-1.05094370729049
4,"85",751.7,"Left",1,0,1,50,"NoGo","Stop",1,1.1242752614886,-1.05094370729049
4,"86",247.8,"Right",1,1,0,50,"Right","NoStop",0,-0.489584126264529,-1.05094370729049
4,"87",304,"Right",1,0,1,50,"NoGo","Stop",1,-0.309590283058087,-1.05094370729049
4,"88",451.1,"Right",1,1,0,50,"Right","NoStop",0,0.161532391953792,-1.05094370729049
4,"89",843.7,"Right",1,0,1,50,"NoGo","Stop",1,1.41892710446,-1.05094370729049
4,"90",331.5,"Left",1,1,0,50,"Left","NoStop",0,-0.221515003909027,-1.05094370729049
4,"91",366.2,"Right",1,1,0,50,"Right","NoStop",0,-0.110380015310032,-1.05094370729049
4,"92",359,"Right",1,1,0,50,"Right","NoStop",0,-0.133439724759968,-1.05094370729049
4,"93",344,"Left",1,0,1,50,"NoGo","Stop",1,-0.181480786114,-1.05094370729049
4,"94",288.8,"Right",1,1,0,50,"Right","NoStop",0,-0.35827189189684,-1.05094370729049
4,"95",741,"Left",1,0,1,50,"NoGo","Stop",1,1.09000597105606,-1.05094370729049
4,"96",846.2,"Left",1,0,1,50,"NoGo","Stop",1,1.42693394801901,-1.05094370729049
4,"97",272.1,"Right",1,1,0,50,"Right","NoStop",0,-0.411757606870996,-1.05094370729049
4,"98",225.5,"Right",1,1,0,50,"Right","NoStop",0,-0.561005170810857,-1.05094370729049
4,"99",736.5,"Right",1,0,1,50,"NoGo","Stop",1,1.07559365264985,-1.05094370729049
4,"100",620,"Right",1,1,0,50,"Right","NoStop",0,0.702474742800199,-1.05094370729049
4,"101",281.9,"Right",1,1,0,50,"Right","NoStop",0,-0.380370780119695,-1.05094370729049
4,"102",353.1,"Left",1,0,1,50,"NoGo","Stop",1,-0.15233587555922,-1.05094370729049
4,"103",356.2,"Right",1,0,1,50,"NoGo","Stop",1,-0.142407389546054,-1.05094370729049
4,"104",829.8,"Left",1,0,1,50,"NoGo","Stop",1,1.37440905427193,-1.05094370729049
4,"105",426.3,"Right",1,1,0,50,"Right","NoStop",0,0.0821045038484585,-1.05094370729049
4,"106",712.6,"Right",1,0,1,50,"NoGo","Stop",1,0.999048228225759,-1.05094370729049
4,"107",315.7,"Left",1,0,1,50,"NoGo","Stop",1,-0.272118255201941,-1.05094370729049
4,"108",373.4,"Right",1,1,0,50,"Right","NoStop",0,-0.0873203058600964,-1.05094370729049
4,"109",724.6,"Left",1,0,1,50,"NoGo","Stop",1,1.03748107730899,-1.05094370729049
4,"110",381.8,"Right",1,1,0,50,"Right","NoStop",0,-0.0604173115018381,-1.05094370729049
4,"111",716.3,"Right",1,0,1,50,"NoGo","Stop",1,1.01089835669309,-1.05094370729049
4,"112",458.1,"Left",1,1,0,50,"Left","NoStop",0,0.183951553919007,-1.05094370729049
4,"113",350.8,"Left",1,0,1,50,"NoGo","Stop",1,-0.159702171633505,-1.05094370729049
4,"114",406.5,"Right",1,1,0,50,"Right","NoStop",0,0.0186903028611355,-1.05094370729049
4,"115",316.2,"Right",1,1,0,50,"Right","NoStop",0,-0.27051688649014,-1.05094370729049
4,"116",505.9,"Left",1,1,0,50,"Left","NoStop",0,0.337042402767191,-1.05094370729049
4,"117",285.2,"Left",1,0,1,50,"NoGo","Stop",1,-0.369801746621808,-1.05094370729049
4,"118",312,"Right",1,1,0,50,"Right","NoStop",0,-0.28396838366927,-1.05094370729049
4,"119",485.3,"Left",1,1,0,50,"Left","NoStop",0,0.271066011840986,-1.05094370729049
4,"120",257.7,"Right",1,1,0,50,"Right","NoStop",0,-0.457877025770867,-1.05094370729049
4,"121",333.6,"Left",1,1,0,50,"Left","NoStop",0,-0.214789255319463,-1.05094370729049
4,"122",253.8,"Right",1,1,0,50,"Right","NoStop",0,-0.470367701722916,-1.05094370729049
4,"123",229.4,"Left",1,1,0,50,"Left","NoStop",0,-0.548514494858809,-1.05094370729049
4,"124",265.2,"Left",1,1,0,50,"Left","NoStop",0,-0.433856495093851,-1.05094370729049
4,"125",264.5,"Right",1,1,0,50,"Right","NoStop",0,-0.436098411290373,-1.05094370729049
4,"126",242.8,"Left",1,1,0,50,"Left","NoStop",0,-0.50559781338254,-1.05094370729049
4,"127",342.1,"Left",1,1,0,50,"Left","NoStop",0,-0.187565987218844,-1.05094370729049
4,"128",293.5,"Right",1,1,0,50,"Right","NoStop",0,-0.34321902600591,-1.05094370729049
4,"129",342.5,"Right",1,1,0,50,"Right","NoStop",0,-0.186284892249403,-1.05094370729049
4,"130",317.6,"Right",1,1,0,50,"Right","NoStop",0,-0.266033054097097,-1.05094370729049
4,"131",313.2,"Right",1,0,1,50,"NoGo","Stop",1,-0.280125098760947,-1.05094370729049
4,"132",319.6,"Left",1,1,0,50,"Left","NoStop",0,-0.259627579249893,-1.05094370729049
4,"133",340.4,"Left",1,1,0,50,"Left","NoStop",0,-0.193010640838968,-1.05094370729049
4,"134",258.4,"Left",1,1,0,50,"Left","NoStop",0,-0.455635109574346,-1.05094370729049
4,"135",333,"Right",1,1,0,50,"Right","NoStop",0,-0.216710897773624,-1.05094370729049
4,"136",314.4,"Right",1,0,1,50,"NoGo","Stop",1,-0.276281813852624,-1.05094370729049
4,"137",293,"Right",1,1,0,50,"Right","NoStop",0,-0.344820394717711,-1.05094370729049
4,"138",272.9,"Right",1,1,0,50,"Right","NoStop",0,-0.409195416932114,-1.05094370729049
4,"139",356.1,"Left",1,1,0,50,"Left","NoStop",0,-0.142727663288414,-1.05094370729049
4,"140",298.6,"Right",1,1,0,50,"Right","NoStop",0,-0.326885065145539,-1.05094370729049
4,"141",308.3,"Right",1,1,0,50,"Right","NoStop",0,-0.295818512136597,-1.05094370729049
4,"142",228.5,"Left",1,0,1,50,"NoGo","Stop",1,-0.551396958540051,-1.05094370729049
4,"143",310.5,"Left",1,1,0,50,"Left","NoStop",0,-0.288772489804673,-1.05094370729049
4,"144",314.1,"Right",1,1,0,50,"Right","NoStop",0,-0.277242635079705,-1.05094370729049
4,"145",272.7,"Left",1,1,0,50,"Left","NoStop",0,-0.409835964416835,-1.05094370729049
4,"146",298.8,"Left",1,1,0,50,"Left","NoStop",0,-0.326244517660818,-1.05094370729049
4,"147",263.9,"Left",1,1,0,50,"Left","NoStop",0,-0.438020053744534,-1.05094370729049
4,"148",274.1,"Right",1,1,0,50,"Right","NoStop",0,-0.405352132023792,-1.05094370729049
4,"149",303.1,"Right",1,1,0,50,"Right","NoStop",0,-0.312472746739329,-1.05094370729049
4,"150",263.4,"Right",1,0,1,50,"NoGo","Stop",1,-0.439621422456335,-1.05094370729049
4,"151",249.2,"Left",1,1,0,50,"Left","NoStop",0,-0.485100293871486,-1.05094370729049
4,"152",725.9,"Right",1,0,1,50,"NoGo","Stop",1,1.04164463595967,-1.05094370729049
4,"153",336.2,"Left",1,1,0,50,"Left","NoStop",0,-0.206462138018097,-1.05094370729049
4,"154",274.6,"Left",1,1,0,50,"Left","NoStop",0,-0.403750763311991,-1.05094370729049
4,"155",520,"Right",1,1,0,50,"Right","NoStop",0,0.382201000439982,-1.05094370729049
4,"156",311.9,"Right",1,1,0,50,"Right","NoStop",0,-0.28428865741163,-1.05094370729049
4,"157",710.7,"Right",1,0,1,50,"NoGo","Stop",1,0.992963027120915,-1.05094370729049
4,"158",290.5,"Left",1,0,1,50,"NoGo","Stop",1,-0.352827238276716,-1.05094370729049
4,"159",726.7,"Left",1,0,1,50,"NoGo","Stop",1,1.04420682589855,-1.05094370729049
4,"160",302.3,"Right",1,1,0,50,"Right","NoStop",0,-0.31503493667821,-1.05094370729049
4,"161",858.1,"Left",1,0,1,50,"NoGo","Stop",1,1.46504652335988,-1.05094370729049
4,"162",357.2,"Right",1,1,0,50,"Right","NoStop",0,-0.139204652122452,-1.05094370729049
4,"163",266.4,"Left",1,1,0,50,"Left","NoStop",0,-0.430013210185528,-1.05094370729049
4,"164",351.2,"Left",1,1,0,50,"Left","NoStop",0,-0.158421076664065,-1.05094370729049
4,"165",349.1,"Left",1,1,0,50,"Left","NoStop",0,-0.165146825253629,-1.05094370729049
4,"166",295.2,"Left",1,1,0,50,"Left","NoStop",0,-0.337774372385786,-1.05094370729049
4,"167",312,"Left",1,1,0,50,"Left","NoStop",0,-0.28396838366927,-1.05094370729049
4,"168",255.6,"Left",1,1,0,50,"Left","NoStop",0,-0.464602774360432,-1.05094370729049
4,"169",359.5,"Right",1,1,0,50,"Right","NoStop",0,-0.131838356048166,-1.05094370729049
4,"170",437.8,"Left",1,1,0,50,"Left","NoStop",0,0.118935984219883,-1.05094370729049
4,"171",413.7,"Left",1,1,0,50,"Left","NoStop",0,0.0417500123110711,-1.05094370729049
4,"172",301,"Right",1,1,0,50,"Right","NoStop",0,-0.319198495328893,-1.05094370729049
4,"173",247,"Left",1,1,0,50,"Left","NoStop",0,-0.49214631620341,-1.05094370729049
4,"174",358.1,"Right",1,1,0,50,"Right","NoStop",0,-0.136322188441209,-1.05094370729049
4,"175",304.7,"Left",1,1,0,50,"Left","NoStop",0,-0.307348366861565,-1.05094370729049
4,"176",278.9,"Right",1,1,0,50,"Right","NoStop",0,-0.389978992390501,-1.05094370729049
4,"177",342.7,"Right",1,1,0,50,"Right","NoStop",0,-0.185644344764683,-1.05094370729049
4,"178",250.3,"Left",1,1,0,50,"Left","NoStop",0,-0.481577282705523,-1.05094370729049
4,"179",330,"Right",1,0,1,50,"NoGo","Stop",1,-0.22631911004443,-1.05094370729049
4,"180",288.7,"Left",1,1,0,50,"Left","NoStop",0,-0.3585921656392,-1.05094370729049
4,"181",355.4,"Right",1,1,0,50,"Right","NoStop",0,-0.144969579484935,-1.05094370729049
4,"182",265.9,"Left",1,1,0,50,"Left","NoStop",0,-0.43161457889733,-1.05094370729049
4,"183",254.2,"Right",1,0,1,50,"NoGo","Stop",1,-0.469086606753475,-1.05094370729049
4,"184",255.1,"Left",1,1,0,50,"Left","NoStop",0,-0.466204143072233,-1.05094370729049
4,"185",268.4,"Left",1,1,0,50,"Left","NoStop",0,-0.423607735338324,-1.05094370729049
4,"186",724.4,"Right",1,0,1,50,"NoGo","Stop",1,1.03684052982426,-1.05094370729049
4,"187",321.8,"Right",1,1,0,50,"Right","NoStop",0,-0.252581556917968,-1.05094370729049
4,"188",297.5,"Left",1,1,0,50,"Left","NoStop",0,-0.330408076311501,-1.05094370729049
4,"189",277.2,"Left",1,1,0,50,"Left","NoStop",0,-0.395423646010625,-1.05094370729049
4,"190",709,"Right",1,0,1,50,"NoGo","Stop",1,0.987518373500792,-1.05094370729049
4,"191",322.3,"Right",1,1,0,50,"Right","NoStop",0,-0.250980188206167,-1.05094370729049
4,"192",333.6,"Right",1,0,1,50,"NoGo","Stop",1,-0.214789255319463,-1.05094370729049
4,"193",424.5,"Right",1,1,0,50,"Right","NoStop",0,0.0763395764859745,-1.05094370729049
4,"194",298.5,"Right",1,1,0,50,"Right","NoStop",0,-0.327205338887899,-1.05094370729049
4,"195",347,"Left",1,1,0,50,"Left","NoStop",0,-0.171872573843194,-1.05094370729049
4,"196",274.8,"Left",1,1,0,50,"Left","NoStop",0,-0.40311021582727,-1.05094370729049
4,"197",280.5,"Left",1,1,0,50,"Left","NoStop",0,-0.384854612512738,-1.05094370729049
4,"198",297.8,"Right",1,1,0,50,"Right","NoStop",0,-0.32944725508442,-1.05094370729049
4,"199",261.6,"Left",1,0,1,50,"NoGo","Stop",1,-0.445386349818819,-1.05094370729049
4,"200",264.8,"Right",1,1,0,50,"Right","NoStop",0,-0.435137590063292,-1.05094370729049
4,"201",729.9,"Right",1,0,1,50,"NoGo","Stop",1,1.05445558565408,-1.05094370729049
4,"202",254.4,"Left",1,1,0,50,"Left","NoStop",0,-0.468446059268754,-1.05094370729049
4,"203",266.7,"Right",1,1,0,50,"Right","NoStop",0,-0.429052388958448,-1.05094370729049
4,"204",630.1,"Left",1,0,1,50,"NoGo","Stop",1,0.734822390778581,-1.05094370729049
4,"205",255.2,"Right",1,1,0,50,"Right","NoStop",0,-0.465883869329873,-1.05094370729049
4,"206",358,"Right",1,1,0,50,"Right","NoStop",0,-0.13664246218357,-1.05094370729049
4,"207",481.5,"Left",1,1,0,50,"Left","NoStop",0,0.258895609631298,-1.05094370729049
4,"208",230.4,"Right",1,1,0,50,"Right","NoStop",0,-0.545311757435206,-1.05094370729049
4,"209",263.3,"Right",1,1,0,50,"Right","NoStop",0,-0.439941696198695,-1.05094370729049
4,"210",212.9,"Right",1,1,0,50,"Right","NoStop",0,-0.601359662348244,-1.05094370729049
4,"211",269.1,"Right",1,0,1,50,"Left","NoStop",0,-0.421365819141802,-1.05094370729049
4,"212",363.7,"Right",1,1,0,50,"Right","NoStop",0,-0.118386858869037,-1.05094370729049
4,"213",727.4,"Right",1,0,1,50,"NoGo","Stop",1,1.04644874209507,-1.05094370729049
4,"214",303.3,"Right",1,1,0,50,"Right","NoStop",0,-0.311832199254608,-1.05094370729049
4,"215",304.4,"Right",1,1,0,50,"Right","NoStop",0,-0.308309188088646,-1.05094370729049
4,"216",278.6,"Left",1,0,1,50,"NoGo","Stop",1,-0.390939813617582,-1.05094370729049
4,"217",190.8,"Left",1,1,0,50,"Left","NoStop",0,-0.672140159409852,-1.05094370729049
4,"218",240.1,"Left",1,1,0,50,"Left","NoStop",0,-0.514245204426265,-1.05094370729049
4,"219",397.7,"Left",1,1,0,50,"Left","NoStop",0,-0.00949378646656365,-1.05094370729049
4,"220",265.7,"Left",1,1,0,50,"Left","NoStop",0,-0.43225512638205,-1.05094370729049
4,"221",387.5,"Right",1,1,0,50,"Right","NoStop",0,-0.0421617081873057,-1.05094370729049
4,"222",287.1,"Right",1,0,1,50,"NoGo","Stop",1,-0.363716545516963,-1.05094370729049
4,"223",702.3,"Right",1,0,1,50,"NoGo","Stop",1,0.966060032762657,-1.05094370729049
4,"224",311.7,"Left",1,1,0,50,"Left","NoStop",0,-0.28492920489635,-1.05094370729049
4,"225",332.4,"Left",1,1,0,50,"Left","NoStop",0,-0.218632540227785,-1.05094370729049
4,"226",334.5,"Right",1,1,0,50,"Right","NoStop",0,-0.211906791638221,-1.05094370729049
4,"227",403.2,"Left",1,1,0,50,"Left","NoStop",0,0.00812126936324828,-1.05094370729049
4,"228",278.2,"Right",1,1,0,50,"Right","NoStop",0,-0.392220908587023,-1.05094370729049
4,"229",255.2,"Left",1,1,0,50,"Left","NoStop",0,-0.465883869329873,-1.05094370729049
4,"230",240.3,"Right",1,1,0,50,"Right","NoStop",0,-0.513604656941545,-1.05094370729049
4,"231",253.5,"Left",1,0,1,50,"NoGo","Stop",1,-0.471328522949996,-1.05094370729049
4,"232",218.3,"Right",1,1,0,50,"Right","NoStop",0,-0.584064880260793,-1.05094370729049
4,"233",334.5,"Left",1,1,0,50,"Left","NoStop",0,-0.211906791638221,-1.05094370729049
4,"234",374.6,"Left",1,1,0,50,"Left","NoStop",0,-0.0834770209517736,-1.05094370729049
4,"235",275.4,"Left",1,1,0,50,"Left","NoStop",0,-0.401188573373109,-1.05094370729049
4,"236",315,"Right",1,1,0,50,"Right","NoStop",0,-0.274360171398463,-1.05094370729049
4,"237",291.3,"Left",1,1,0,50,"Left","NoStop",0,-0.350265048337834,-1.05094370729049
4,"238",720.7,"Right",1,0,1,50,"NoGo","Stop",1,1.02499040135694,-1.05094370729049
4,"239",258.4,"Left",1,1,0,50,"Left","NoStop",0,-0.455635109574346,-1.05094370729049
4,"240",284.7,"Right",1,1,0,50,"Right","NoStop",0,-0.371403115333609,-1.05094370729049
16,"1",518.9,"Right",1,1,0,250,"Right","NoStop",0,0.378677989274019,0.704896806108174
16,"2",85.5,"Left",1,1,0,250,"Left","NoStop",0,-1.00938841011516,0.704896806108174
16,"3",167.0999999,"Right",1,0,1,250,"NoGo","Stop",1,-0.748045036669498,0.704896806108174
16,"4",287,"Left",1,1,0,200,"Left","NoStop",0,-0.364036819259324,0.265936677758507
16,"5",194.8,"Right",1,1,0,200,"Right","NoStop",0,-0.659329209715444,0.265936677758507
16,"6",221.1,"Left",1,0,1,200,"NoGo","Stop",1,-0.575097215474707,0.265936677758507
16,"7",327.1,"Left",1,1,0,150,"Left","NoStop",0,-0.235607048572877,-0.173023450591161
16,"8",258.4,"Left",1,1,0,150,"Left","NoStop",0,-0.455635109574346,-0.173023450591161
16,"9",811.8,"Right",1,0,1,150,"NoGo","Stop",1,1.31675978064709,-0.173023450591161
16,"10",647.6,"Right",1,1,0,100,"Right","NoStop",0,0.790870295691618,-0.611983578940828
16,"11",353.6999999,"Right",1,1,0,100,"Right","NoStop",0,-0.150414233425333,-0.611983578940828
16,"12",1302.3,"Right",1,1,0,100,"Right","NoStop",0,2.88770248692396,-0.611983578940828
16,"13",278.4000001,"Right",1,1,0,100,"Right","NoStop",0,-0.391580360782029,-0.611983578940828
16,"14",1401.444,"NoGo",NA,1,0,100,"NoGo","Stop",1,3.20523468604957,-0.611983578940828
16,"15",1351.326,"NoGo",NA,1,0,150,"NoGo","Stop",1,3.04471989185348,-0.173023450591161
16,"16",213.8,"Left",1,1,0,200,"Left","NoStop",0,-0.598477198667002,0.265936677758507
16,"17",1301.334,"NoGo",NA,1,0,200,"NoGo","Stop",1,2.88460864257276,0.265936677758507
16,"18",102.8,"Right",1,1,0,250,"Right","NoStop",0,-0.953981052686843,0.704896806108174
16,"19",376.1,"Left",1,1,0,250,"Left","NoStop",0,-0.0786729148163704,0.704896806108174
16,"20",463.7,"Right",1,1,0,250,"Right","NoStop",0,0.20188688349118,0.704896806108174
16,"21",1251.272,"NoGo",NA,1,0,250,"NoGo","Stop",1,2.72427320167239,0.704896806108174
16,"22",255.4000001,"Left",1,1,0,300,"Left","NoStop",0,-0.465243321524879,1.14385693445784
16,"23",1201.083,"NoGo",NA,1,0,300,"NoGo","Stop",1,2.56353101311922,1.14385693445784
16,"24",180.4,"Right",1,1,0,350,"Right","NoStop",0,-0.705448628615315,1.58281706280751
16,"25",541,"Right",1,1,0,350,"Right","NoStop",0,0.449458486335627,1.58281706280751
16,"26",305.7,"Right",1,1,0,350,"Right","NoStop",0,-0.304145629437963,1.58281706280751
16,"27",177,"Left",1,0,1,350,"NoGo","Stop",1,-0.716337935855562,1.58281706280751
16,"28",340.8,"Right",1,1,0,300,"Right","NoStop",0,-0.191729545869527,1.14385693445784
16,"29",387.3,"Right",1,1,0,300,"Right","NoStop",0,-0.0428022556720261,1.14385693445784
16,"30",259.6999999,"Right",1,1,0,300,"Right","NoStop",0,-0.451471551243937,1.14385693445784
16,"31",1201.228,"NoGo",NA,1,0,300,"NoGo","Stop",1,2.56399541004564,1.14385693445784
16,"32",129.5999999,"Right",1,1,0,350,"Right","NoStop",0,-0.868147690054579,1.58281706280751
16,"33",1151.172,"NoGo",NA,1,0,350,"NoGo","Stop",1,2.40367918556981,1.58281706280751
16,"34",2.299999952,"Right",1,1,0,400,"Right","NoStop",0,-1.27585616391259,2.02177719115717
16,"35",391.8,"Left",1,1,0,400,"Left","NoStop",0,-0.0283899372658164,2.02177719115717
16,"36",180.6,"Right",1,0,1,400,"NoGo","Stop",1,-0.704808081130595,2.02177719115717
16,"37",561.4,"Left",1,1,0,350,"Left","NoStop",0,0.514794329777111,1.58281706280751
16,"38",395.6,"Left",1,1,0,350,"Left","NoStop",0,-0.0162195350561281,1.58281706280751
16,"39",244.6,"Left",1,1,0,350,"Left","NoStop",0,-0.499832886020056,1.58281706280751
16,"40",247.9,"Right",1,0,1,350,"NoGo","Stop",1,-0.489263852522169,1.58281706280751
16,"41",1201.315,"NoGo",NA,1,0,300,"NoGo","Stop",1,2.56427404820149,1.14385693445784
16,"42",114.1999999,"Right",1,0,1,350,"NoGo","Stop",1,-0.917469846378052,1.58281706280751
16,"43",547.1999999,"Left",1,1,0,300,"Left","NoStop",0,0.469315458041687,1.14385693445784
16,"44",536.4,"Left",1,1,0,300,"Left","NoStop",0,0.434725894187057,1.14385693445784
16,"45",483.0999999,"Left",1,1,0,300,"Left","NoStop",0,0.264019989188788,1.14385693445784
16,"46",472,"Left",1,1,0,300,"Left","NoStop",0,0.228469604107078,1.14385693445784
16,"47",229.5,"Right",1,0,1,300,"NoGo","Stop",1,-0.548194221116448,1.14385693445784
16,"48",1251.288,"NoGo",NA,1,0,250,"NoGo","Stop",1,2.72432444547116,0.704896806108174
16,"49",370.8000001,"Left",1,1,0,300,"Left","NoStop",0,-0.0956474228411883,1.14385693445784
16,"50",390.1,"Left",1,1,0,300,"Left","NoStop",0,-0.03383459088594,1.14385693445784
16,"51",415.4,"Right",1,1,0,300,"Right","NoStop",0,0.0471946659311947,1.14385693445784
16,"52",911.5,"Right",1,1,0,300,"Right","NoStop",0,1.63607270178023,1.14385693445784
16,"53",413.7,"Left",1,1,0,300,"Left","NoStop",0,0.0417500123110711,1.14385693445784
16,"54",380.9,"Left",1,1,0,300,"Left","NoStop",0,-0.0632997751830801,1.14385693445784
16,"55",538.2,"Left",1,1,0,300,"Left","NoStop",0,0.440490821549541,1.14385693445784
16,"56",80.5,"Right",1,0,1,300,"NoGo","Stop",1,-1.02540209723317,1.14385693445784
16,"57",1251.237,"NoGo",NA,1,0,250,"NoGo","Stop",1,2.72416110586256,0.704896806108174
16,"58",916.4,"Right",1,1,0,300,"Right","NoStop",0,1.65176611515588,1.14385693445784
16,"59",1201.324,"NoGo",NA,0,1,300,"Right","NoStop",0,2.56430287283831,1.14385693445784
16,"60",102.9,"Right",1,1,0,300,"Right","NoStop",0,-0.953660778944483,1.14385693445784
16,"61",811.6,"Right",1,1,0,300,"Right","NoStop",0,1.31611923316237,1.14385693445784
16,"62",504.6999999,"Right",1,1,0,300,"Right","NoStop",0,0.333199117538595,1.14385693445784
16,"63",216.4,"Right",1,1,0,300,"Right","NoStop",0,-0.590150081365637,1.14385693445784
16,"64",147.9,"Left",1,1,0,300,"Left","NoStop",0,-0.809537594882385,1.14385693445784
16,"65",147.6999999,"Right",1,1,0,300,"Right","NoStop",0,-0.81017814268738,1.14385693445784
16,"66",118.3,"Right",1,1,0,300,"Right","NoStop",0,-0.90433862262101,1.14385693445784
16,"67",73.5,"Right",1,1,0,300,"Right","NoStop",0,-1.04782125919839,1.14385693445784
16,"68",62.39999998,"Right",1,0,1,300,"NoGo","Stop",1,-1.08337164466443,1.14385693445784
16,"69",360.8000001,"Left",1,1,0,250,"Left","NoStop",0,-0.12767479707721,0.704896806108174
16,"70",227.4,"Left",1,1,0,250,"Left","NoStop",0,-0.554919969706013,0.704896806108174
16,"71",527.4,"Left",1,1,0,250,"Left","NoStop",0,0.405901257374638,0.704896806108174
16,"72",235.9,"Left",1,1,0,250,"Left","NoStop",0,-0.527696701605395,0.704896806108174
16,"73",229.9,"Right",1,0,1,250,"NoGo","Stop",1,-0.546913126147008,0.704896806108174
16,"74",696,"Right",1,1,0,200,"Right","NoStop",0,0.945882786993963,0.265936677758507
16,"75",196,"Left",1,0,1,200,"NoGo","Stop",1,-0.655485924807121,0.265936677758507
16,"76",1351.394,"NoGo",NA,1,0,150,"NoGo","Stop",1,3.04493767799828,-0.173023450591161
16,"77",1301.401,"NoGo",NA,1,0,200,"NoGo","Stop",1,2.88482322598014,0.265936677758507
16,"78",1251.289,"NoGo",NA,1,0,250,"NoGo","Stop",1,2.72432764820859,0.704896806108174
16,"79",246.5,"Left",1,1,0,300,"Left","NoStop",0,-0.493747684915212,1.14385693445784
16,"80",326.5,"Left",1,1,0,300,"Left","NoStop",0,-0.237528691027038,1.14385693445784
16,"81",379.4,"Right",1,1,0,300,"Right","NoStop",0,-0.0681038813184834,1.14385693445784
16,"82",416.6999999,"Left",1,1,0,300,"Left","NoStop",0,0.0513582242616039,1.14385693445784
16,"83",313.7,"Right",1,1,0,300,"Right","NoStop",0,-0.278523730049146,1.14385693445784
16,"84",87.30000007,"Left",1,1,0,300,"Left","NoStop",0,-1.00362348252849,1.14385693445784
16,"85",112.9,"Right",1,1,0,300,"Right","NoStop",0,-0.921633404708461,1.14385693445784
16,"86",83,"Left",1,0,1,300,"NoGo","Stop",1,-1.01739525367417,1.14385693445784
16,"87",1251.238,"NoGo",NA,1,0,250,"NoGo","Stop",1,2.72416430859998,0.704896806108174
16,"88",348.5,"Right",1,1,0,300,"Right","NoStop",0,-0.16706846770779,1.14385693445784
16,"89",498.2,"Right",1,1,0,300,"Right","NoStop",0,0.312381324605454,1.14385693445784
16,"90",336.6,"Right",1,1,0,300,"Right","NoStop",0,-0.205181043048656,1.14385693445784
16,"91",117,"Right",1,1,0,300,"Right","NoStop",0,-0.908502181271692,1.14385693445784
16,"92",398.4,"Left",1,1,0,300,"Left","NoStop",0,-0.00725187027004216,1.14385693445784
16,"93",1201.103,"NoGo",NA,1,0,300,"NoGo","Stop",1,2.56359506786769,1.14385693445784
16,"94",164.6999999,"Left",1,0,1,350,"NoGo","Stop",1,-0.755731606486143,1.58281706280751
16,"95",727.6999999,"Left",1,1,0,300,"Left","NoStop",0,1.04740956300188,1.14385693445784
16,"96",501.2,"Left",1,1,0,300,"Left","NoStop",0,0.321989536876261,1.14385693445784
16,"97",1201.123,"NoGo",NA,1,0,300,"NoGo","Stop",1,2.56365912261616,1.14385693445784
16,"98",128.6,"Right",1,1,0,350,"Right","NoStop",0,-0.871350427157907,1.58281706280751
16,"99",353.7,"Right",1,1,0,350,"Right","NoStop",0,-0.150414233105059,1.58281706280751
16,"100",132.5,"Right",1,1,0,350,"Right","NoStop",0,-0.858859751205859,1.58281706280751
16,"101",328.5,"Right",1,1,0,350,"Right","NoStop",0,-0.231123216179834,1.58281706280751
16,"102",95.10000002,"Left",1,1,0,350,"Left","NoStop",0,-0.978642130784525,1.58281706280751
16,"103",246.2,"Left",1,0,1,350,"NoGo","Stop",1,-0.494708506142292,1.58281706280751
16,"104",317.5,"Right",1,1,0,300,"Right","NoStop",0,-0.266353327839458,1.14385693445784
16,"105",560.4,"Left",1,1,0,300,"Left","NoStop",0,0.511591592353509,1.14385693445784
16,"106",501.0999999,"Left",1,1,0,300,"Left","NoStop",0,0.321669262813627,1.14385693445784
16,"107",626.3000001,"Left",1,1,0,300,"Left","NoStop",0,0.722651988889166,1.14385693445784
16,"108",432.4,"Right",1,1,0,300,"Right","NoStop",0,0.101641202132432,1.14385693445784
16,"109",1201.197,"NoGo",NA,1,0,300,"NoGo","Stop",1,2.56389612518551,1.14385693445784
16,"110",224.3,"Right",1,1,0,350,"Right","NoStop",0,-0.56484845571918,1.58281706280751
16,"111",178.5,"Left",1,1,0,350,"Left","NoStop",0,-0.711533829720159,1.58281706280751
16,"112",331.6999999,"Right",1,1,0,350,"Right","NoStop",0,-0.22087445674458,1.58281706280751
16,"113",210.3000001,"Left",1,0,1,350,"NoGo","Stop",1,-0.609686779329336,1.58281706280751
16,"114",397.1,"Right",1,1,0,300,"Right","NoStop",0,-0.0114154289207248,1.14385693445784
16,"115",261,"Left",1,1,0,300,"Left","NoStop",0,-0.44730799227298,1.14385693445784
16,"116",679.8,"Left",1,1,0,300,"Left","NoStop",0,0.893998440731608,1.14385693445784
16,"117",446.5,"Left",1,1,0,300,"Left","NoStop",0,0.146799799805222,1.14385693445784
16,"118",259.2,"Right",1,1,0,300,"Right","NoStop",0,-0.453072919635464,1.14385693445784
16,"119",235,"Right",1,1,0,300,"Right","NoStop",0,-0.530579165286637,1.14385693445784
16,"120",265.5,"Left",1,1,0,300,"Left","NoStop",0,-0.43289567386677,1.14385693445784
16,"121",331.3,"Right",1,1,0,300,"Right","NoStop",0,-0.222155551393748,1.14385693445784
16,"122",265.1,"Right",1,1,0,300,"Right","NoStop",0,-0.434176768836211,1.14385693445784
16,"123",1201.105,"NoGo",NA,1,0,300,"NoGo","Stop",1,2.56360147334254,1.14385693445784
16,"124",123.1,"Left",1,1,0,350,"Left","NoStop",0,-0.888965482987719,1.58281706280751
16,"125",381.1,"Right",1,1,0,350,"Right","NoStop",0,-0.0626592276983595,1.58281706280751
16,"126",181.4,"Left",1,1,0,350,"Left","NoStop",0,-0.702245891191713,1.58281706280751
16,"127",80.79999995,"Right",1,1,0,350,"Right","NoStop",0,-1.02444127616623,1.58281706280751
16,"128",290.5,"Left",1,1,0,350,"Left","NoStop",0,-0.352827238276716,1.58281706280751
16,"129",824.2,"Left",1,1,0,350,"Left","NoStop",0,1.35647372469976,1.58281706280751
16,"130",85.70000005,"Left",1,1,0,350,"Left","NoStop",0,-1.0087478624703,1.58281706280751
16,"131",114.3,"Left",1,0,1,350,"NoGo","Stop",1,-0.917149572315418,1.58281706280751
16,"132",192.9000001,"Right",1,0,1,300,"NoGo","Stop",1,-0.665414410500014,1.14385693445784
16,"133",419.6,"Right",1,1,0,250,"Right","NoStop",0,0.060646163110324,0.704896806108174
16,"134",315.8,"Left",1,1,0,250,"Left","NoStop",0,-0.271797981459581,0.704896806108174
16,"135",428.5,"Right",1,1,0,250,"Right","NoStop",0,0.0891505261803832,0.704896806108174
16,"136",1251.316,"NoGo",NA,1,0,250,"NoGo","Stop",1,2.72441412211903,0.704896806108174
16,"137",353.1999999,"Left",1,1,0,300,"Left","NoStop",0,-0.152015602137134,1.14385693445784
16,"138",414.3,"Right",1,1,0,300,"Right","NoStop",0,0.0436716547652324,1.14385693445784
16,"139",1201.204,"NoGo",NA,1,0,300,"NoGo","Stop",1,2.56391854434747,1.14385693445784
16,"140",266,"Left",1,1,0,350,"Left","NoStop",0,-0.431294305154969,1.58281706280751
16,"141",1151.239,"NoGo",NA,1,0,350,"NoGo","Stop",1,2.40389376897719,1.58281706280751
16,"142",1100.943,"NoGo",NA,1,0,400,"NoGo","Stop",1,2.2428088875197,2.02177719115717
16,"143",165.5,"Right",1,1,0,450,"Right","NoStop",0,-0.753169416226987,2.46073731950684
16,"144",422.1999999,"Left",1,1,0,450,"Left","NoStop",0,0.0689732800914159,2.46073731950684
16,"145",352.2,"Left",1,1,0,450,"Left","NoStop",0,-0.155218339240462,2.46073731950684
16,"146",306.6999999,"Left",1,1,0,450,"Left","NoStop",0,-0.300942892334635,2.46073731950684
16,"147",357.2,"Left",1,1,0,450,"Left","NoStop",0,-0.139204652122452,2.46073731950684
16,"148",267.4,"Right",1,1,0,450,"Right","NoStop",0,-0.426810472761926,2.46073731950684
16,"149",164.3000001,"Left",1,1,0,450,"Left","NoStop",0,-0.757012700815036,2.46073731950684
16,"150",27.5,"Left",1,0,1,450,"NoGo","Stop",1,-1.19514718068409,2.46073731950684
16,"151",230.2,"Left",1,1,0,400,"Left","NoStop",0,-0.545952304919927,2.02177719115717
16,"152",189.8,"Left",1,1,0,400,"Left","NoStop",0,-0.675342896833454,2.02177719115717
16,"153",315.6,"Left",1,1,0,400,"Left","NoStop",0,-0.272438528944302,2.02177719115717
16,"154",305.7,"Right",1,1,0,400,"Right","NoStop",0,-0.304145629437963,2.02177719115717
16,"155",247.5,"Left",1,1,0,400,"Left","NoStop",0,-0.490544947491609,2.02177719115717
16,"156",199.9,"Left",1,0,1,400,"NoGo","Stop",1,-0.642995248855073,2.02177719115717
16,"157",495.6,"Left",1,1,0,350,"Left","NoStop",0,0.304054207304089,1.58281706280751
16,"158",61,"Right",1,1,0,350,"Right","NoStop",0,-1.08785547699341,1.58281706280751
16,"159",188,"Left",1,0,1,350,"NoGo","Stop",1,-0.681107824195939,1.58281706280751
16,"160",212.9,"Left",1,1,0,300,"Left","NoStop",0,-0.601359662348244,1.14385693445784
16,"161",510.3,"Left",1,1,0,300,"Left","NoStop",0,0.351134447431041,1.14385693445784
16,"162",362.1999999,"Right",1,1,0,300,"Right","NoStop",0,-0.123190965324714,1.14385693445784
16,"163",256.5,"Right",1,1,0,300,"Right","NoStop",0,-0.46172031067919,1.14385693445784
16,"164",384.5,"Left",1,1,0,300,"Left","NoStop",0,-0.0517699204581122,1.14385693445784
16,"165",240.1,"Left",1,1,0,300,"Left","NoStop",0,-0.514245204426265,1.14385693445784
16,"166",110.5,"Left",1,1,0,300,"Left","NoStop",0,-0.929319974525107,1.14385693445784
16,"167",128.9,"Left",1,1,0,300,"Left","NoStop",0,-0.870389605930827,1.14385693445784
16,"168",231.6,"Right",1,1,0,300,"Right","NoStop",0,-0.541468472526884,1.14385693445784
16,"169",78.79999995,"Left",1,0,1,300,"Right","NoStop",0,-1.03084675101343,1.14385693445784
16,"170",200.2,"Right",1,1,0,300,"Right","NoStop",0,-0.642034427627992,1.14385693445784
16,"171",178.6,"Right",1,1,0,300,"Right","NoStop",0,-0.711213555977799,1.14385693445784
16,"172",248.3000001,"Right",1,1,0,300,"Right","NoStop",0,-0.487982757232454,1.14385693445784
16,"173",148.6,"Left",1,1,0,300,"Left","NoStop",0,-0.807295678685864,1.14385693445784
16,"174",98.39999998,"Right",1,1,0,300,"Right","NoStop",0,-0.968073097414747,1.14385693445784
16,"175",70.89999998,"Right",1,1,0,300,"Right","NoStop",0,-1.05614837656381,1.14385693445784
16,"176",43.89999998,"Left",1,1,0,300,"Left","NoStop",0,-1.14262228700107,1.14385693445784
16,"177",49.10000002,"Right",1,0,1,300,"NoGo","Stop",1,-1.12596805227023,1.14385693445784
16,"178",553.6,"Left",1,1,0,250,"Left","NoStop",0,0.489812977873015,0.704896806108174
16,"179",204.5,"Left",1,1,0,250,"Left","NoStop",0,-0.628262656706503,0.704896806108174
16,"180",190.2,"Right",1,1,0,250,"Right","NoStop",0,-0.674061801864014,0.704896806108174
16,"181",614.5999999,"Right",1,1,0,250,"Right","NoStop",0,0.685179960392473,0.704896806108174
16,"182",1251.31,"NoGo",NA,1,0,250,"NoGo","Stop",1,2.72439490569448,0.704896806108174
16,"183",489.0999999,"Left",1,1,0,300,"Left","NoStop",0,0.283236413730401,1.14385693445784
16,"184",360.3000001,"Right",1,1,0,300,"Right","NoStop",0,-0.129276165789011,1.14385693445784
16,"185",305.9,"Left",1,1,0,300,"Left","NoStop",0,-0.303505081953243,1.14385693445784
16,"186",1201.103,"NoGo",NA,1,0,300,"NoGo","Stop",1,2.56359506786769,1.14385693445784
16,"187",214.7,"Left",1,0,1,350,"NoGo","Stop",1,-0.595594734985761,1.58281706280751
16,"188",182.1999999,"Right",1,1,0,300,"Right","NoStop",0,-0.699683701573105,1.14385693445784
16,"189",1201.276,"NoGo",NA,1,0,300,"NoGo","Stop",1,2.56414914144197,1.14385693445784
16,"190",217.6999999,"Right",1,1,0,350,"Right","NoStop",0,-0.585986523035228,1.58281706280751
16,"191",1151.12,"NoGo",NA,1,0,350,"NoGo","Stop",1,2.40351264322378,1.58281706280751
16,"192",306.4,"Right",1,1,0,400,"Right","NoStop",0,-0.301903713241442,2.02177719115717
16,"193",371.9,"Right",1,1,0,400,"Right","NoStop",0,-0.0921244119954996,2.02177719115717
16,"194",299.1,"Right",1,0,1,400,"NoGo","Stop",1,-0.325283696433737,2.02177719115717
16,"195",182.4,"Right",1,1,0,350,"Right","NoStop",0,-0.699043153768111,1.58281706280751
16,"196",19.19999993,"Right",1,1,0,350,"Right","NoStop",0,-1.22172990152418,1.58281706280751
16,"197",321.5,"Right",1,0,1,350,"NoGo","Stop",1,-0.253542378145049,1.58281706280751
16,"198",68.10000002,"Right",1,1,0,300,"Right","NoStop",0,-1.06511604122178,1.14385693445784
16,"199",36.80000007,"Right",1,1,0,300,"Right","NoStop",0,-1.16536172242039,1.14385693445784
16,"200",17.39999998,"Right",1,1,0,300,"Right","NoStop",0,-1.22749482872652,1.14385693445784
16,"201",212.9,"Left",1,1,0,300,"Left","NoStop",0,-0.601359662348244,1.14385693445784
16,"202",77.39999998,"Right",1,1,0,300,"Right","NoStop",0,-1.03533058331039,1.14385693445784
16,"203",152.1,"Left",1,1,0,300,"Left","NoStop",0,-0.796086097703256,1.14385693445784
16,"204",174.2,"Left",1,1,0,300,"Left","NoStop",0,-0.725305600641648,1.14385693445784
16,"205",21.80000007,"Right",1,1,0,300,"Right","NoStop",0,-1.21340278377443,1.14385693445784
16,"206",229.8,"Left",1,1,0,300,"Left","NoStop",0,-0.547233399889368,1.14385693445784
16,"207",228.6,"Left",1,1,0,300,"Left","NoStop",0,-0.55107668479769,1.14385693445784
16,"208",132.2,"Left",1,1,0,300,"Left","NoStop",0,-0.85982057243294,1.14385693445784
16,"209",168.1,"Left",1,1,0,300,"Left","NoStop",0,-0.744842298925622,1.14385693445784
16,"210",99.70000005,"Left",1,1,0,300,"Left","NoStop",0,-0.963909538539873,1.14385693445784
16,"211",109.4,"Right",1,1,0,300,"Right","NoStop",0,-0.932842985691069,1.14385693445784
16,"212",125.9,"Right",1,1,0,300,"Right","NoStop",0,-0.879997818201633,1.14385693445784
16,"213",2.899999976,"Left",1,1,0,300,"Left","NoStop",0,-1.27393452138157,1.14385693445784
16,"214",134.1,"Left",1,1,0,300,"Left","NoStop",0,-0.853735371328095,1.14385693445784
16,"215",61.5999999,"Left",1,1,0,300,"Left","NoStop",0,-1.08593383485953,1.14385693445784
16,"216",155.3,"Right",1,1,0,300,"Right","NoStop",0,-0.785837337947729,1.14385693445784
16,"217",101,"Right",1,0,1,300,"NoGo","Stop",1,-0.959745980049327,1.14385693445784
16,"218",182.9,"Left",1,0,1,250,"NoGo","Stop",1,-0.697441785056309,0.704896806108174
16,"219",459.3,"Right",1,1,0,200,"Right","NoStop",0,0.18779483882733,0.265936677758507
16,"220",180.9,"Right",1,1,0,200,"Right","NoStop",0,-0.703847259903514,0.265936677758507
16,"221",252.4,"Right",1,1,0,200,"Right","NoStop",0,-0.474851534115959,0.265936677758507
16,"222",218.8000001,"Left",1,1,0,200,"Left","NoStop",0,-0.582463511228718,0.265936677758507
16,"223",180.4,"Left",1,1,0,200,"Left","NoStop",0,-0.705448628615315,0.265936677758507
16,"224",151.5,"Left",1,0,1,200,"NoGo","Stop",1,-0.798007740157418,0.265936677758507
16,"225",1351.241,"NoGo",NA,1,0,150,"NoGo","Stop",1,3.04444765917247,-0.173023450591161
16,"226",178.9,"Right",1,1,0,200,"Right","NoStop",0,-0.710252734750718,0.265936677758507
16,"227",375.1,"Right",1,0,1,200,"NoGo","Stop",1,-0.0818756522399726,0.265936677758507
16,"228",1351.35,"NoGo",NA,1,0,150,"NoGo","Stop",1,3.04479675755164,-0.173023450591161
16,"229",378.5,"Left",1,1,0,200,"Left","NoStop",0,-0.0709863449997253,0.265936677758507
16,"230",429.5,"Left",1,1,0,200,"Left","NoStop",0,0.0923532636039854,0.265936677758507
16,"231",341.0999999,"Right",1,1,0,200,"Right","NoStop",0,-0.19076872496272,0.265936677758507
16,"232",435.6,"Left",1,1,0,200,"Left","NoStop",0,0.111889961887959,0.265936677758507
16,"233",361.9,"Left",1,1,0,200,"Left","NoStop",0,-0.124151786231521,0.265936677758507
16,"234",295.9,"Left",1,1,0,200,"Left","NoStop",0,-0.335532456189264,0.265936677758507
16,"235",252.6,"Left",1,1,0,200,"Left","NoStop",0,-0.474210986631238,0.265936677758507
16,"236",243.5,"Right",1,1,0,200,"Right","NoStop",0,-0.503355897186018,0.265936677758507
16,"237",1301.288,"NoGo",NA,1,0,200,"NoGo","Stop",1,2.88446131665127,0.265936677758507
16,"238",345.8,"Right",1,1,0,250,"Right","NoStop",0,-0.175715858751516,0.704896806108174
16,"239",1251.244,"NoGo",NA,1,0,250,"NoGo","Stop",1,2.72418352502453,0.704896806108174
16,"240",1201.2,"NoGo",NA,1,0,300,"NoGo","Stop",1,2.56390573339778,1.14385693445784
5,"1",70.79999995,"Right",1,1,0,250,"Right","NoStop",0,-1.05646865040225,0.704896806108174
5,"2",32.60000002,"Left",1,1,0,250,"Left","NoStop",0,-1.17881321975966,0.704896806108174
5,"3",41.20000005,"Left",1,1,0,250,"Left","NoStop",0,-1.1512696778206,0.704896806108174
5,"4",173.1999999,"Left",1,1,0,250,"Left","NoStop",0,-0.728508338385524,0.704896806108174
5,"5",134.1,"Right",1,0,1,250,"NoGo","Stop",1,-0.853735371328095,0.704896806108174
5,"6",92.20000005,"Left",1,1,0,200,"Left","NoStop",0,-0.98793006921689,0.265936677758507
5,"7",113.3,"Right",1,1,0,200,"Right","NoStop",0,-0.92035230973902,0.265936677758507
5,"8",152.4000001,"Left",1,0,1,200,"NoGo","Stop",1,-0.795125276155902,0.265936677758507
5,"9",679.3000001,"Left",1,1,0,150,"Left","NoStop",0,0.892397072340081,-0.173023450591161
5,"10",270,"Left",1,1,0,150,"Left","NoStop",0,-0.418483355460561,-0.173023450591161
5,"11",241.4,"Right",1,1,0,150,"Right","NoStop",0,-0.510081645775583,-0.173023450591161
5,"12",233.8000001,"Right",1,1,0,150,"Right","NoStop",0,-0.534422449874685,-0.173023450591161
5,"13",202.6999999,"Right",1,1,0,150,"Right","NoStop",0,-0.63402758438926,-0.173023450591161
5,"14",213.9000001,"Left",1,1,0,150,"Left","NoStop",0,-0.598156924604369,-0.173023450591161
5,"15",217.1,"Left",1,1,0,150,"Left","NoStop",0,-0.587908165169115,-0.173023450591161
5,"16",984.6999999,"Right",1,0,1,150,"NoGo","Stop",1,1.87051308086764,-0.173023450591161
5,"17",173.4000001,"Left",1,0,1,100,"Right","NoStop",0,-0.727867790260256,-0.611983578940828
5,"18",264.3000001,"Right",1,1,0,100,"Right","NoStop",0,-0.436738958454819,-0.611983578940828
5,"19",350.8,"Left",1,1,0,100,"Left","NoStop",0,-0.159702171633505,-0.611983578940828
5,"20",188.6999999,"Right",1,1,0,100,"Right","NoStop",0,-0.678865908319691,-0.611983578940828
5,"21",142,"Left",1,0,1,100,"Right","NoStop",0,-0.828433745681638,-0.611983578940828
5,"22",244.2,"Right",1,1,0,100,"Right","NoStop",0,-0.501113980989497,-0.611983578940828
5,"23",795,"Left",1,0,1,100,"NoGo","Stop",1,1.26295379193058,-0.611983578940828
5,"24",792.3000001,"Left",1,0,1,50,"NoGo","Stop",1,1.25430640120713,-1.05094370729049
5,"25",526.8,"Right",1,1,0,50,"Right","NoStop",0,0.403979614920476,-1.05094370729049
5,"26",250.3,"Right",1,1,0,50,"Right","NoStop",0,-0.481577282705523,-1.05094370729049
5,"27",549.8000001,"Left",1,1,0,50,"Left","NoStop",0,0.4776425759836,-1.05094370729049
5,"28",298.1999999,"Left",1,1,0,50,"Left","NoStop",0,-0.328166160435253,-1.05094370729049
5,"29",318,"Right",1,1,0,50,"Right","NoStop",0,-0.264751959127656,-1.05094370729049
5,"30",775.4,"Right",1,0,1,50,"NoGo","Stop",1,1.20018013842798,-1.05094370729049
5,"31",220.5,"Right",1,1,0,50,"Right","NoStop",0,-0.577018857928868,-1.05094370729049
5,"32",735.2,"Right",1,0,1,50,"NoGo","Stop",1,1.07143009399917,-1.05094370729049
5,"33",311,"Right",1,1,0,50,"Right","NoStop",0,-0.287171121092872,-1.05094370729049
5,"34",590.6,"Left",1,1,0,50,"Left","NoStop",0,0.608314262546295,-1.05094370729049
5,"35",254,"Right",1,1,0,50,"Right","NoStop",0,-0.469727154238195,-1.05094370729049
5,"36",766,"Right",1,0,1,50,"NoGo","Stop",1,1.17007440664612,-1.05094370729049
5,"37",283.9,"Left",1,1,0,50,"Left","NoStop",0,-0.373965305272491,-1.05094370729049
5,"38",772.7,"Right",1,0,1,50,"NoGo","Stop",1,1.19153274738425,-1.05094370729049
5,"39",652.5,"Left",1,0,1,50,"NoGo","Stop",1,0.806563709067269,-1.05094370729049
5,"40",376.8,"Left",1,1,0,50,"Left","NoStop",0,-0.0764309986198489,-1.05094370729049
5,"41",322.8,"Left",1,1,0,50,"Left","NoStop",0,-0.249378819494366,-1.05094370729049
5,"42",346,"Left",1,1,0,50,"Left","NoStop",0,-0.175075311266796,-1.05094370729049
5,"43",400.7,"Right",1,1,0,50,"Right","NoStop",0,0.000114425804242861,-1.05094370729049
5,"44",280.3000001,"Left",1,1,0,50,"Left","NoStop",0,-0.385495159677185,-1.05094370729049
5,"45",369.5,"Left",1,1,0,50,"Left","NoStop",0,-0.0998109818121448,-1.05094370729049
5,"46",332.9,"Left",1,1,0,50,"Left","NoStop",0,-0.217031171515984,-1.05094370729049
5,"47",229.1999999,"Left",1,0,1,50,"NoGo","Stop",1,-0.549155042663803,-1.05094370729049
5,"48",288.2,"Right",1,1,0,50,"Right","NoStop",0,-0.360193534351001,-1.05094370729049
5,"49",377,"Right",1,1,0,50,"Right","NoStop",0,-0.0757904511351285,-1.05094370729049
5,"50",305.5,"Right",1,1,0,50,"Right","NoStop",0,-0.304786176922684,-1.05094370729049
5,"51",348,"Left",1,1,0,50,"Left","NoStop",0,-0.168669836419591,-1.05094370729049
5,"52",343.2,"Left",1,1,0,50,"Left","NoStop",0,-0.184042976052882,-1.05094370729049
5,"53",309.3000001,"Right",1,1,0,50,"Right","NoStop",0,-0.292615774392722,-1.05094370729049
5,"54",259.1,"Left",1,1,0,50,"Left","NoStop",0,-0.453393193377824,-1.05094370729049
5,"55",279.7,"Right",1,1,0,50,"Right","NoStop",0,-0.38741680245162,-1.05094370729049
5,"56",344.1,"Left",1,0,1,50,"Right","NoStop",0,-0.18116051237164,-1.05094370729049
5,"57",392.8,"Left",1,1,0,50,"Left","NoStop",0,-0.0251871998422142,-1.05094370729049
5,"58",814.9000001,"Left",1,0,1,50,"NoGo","Stop",1,1.32668826698054,-1.05094370729049
5,"59",352.6,"Right",1,1,0,50,"Right","NoStop",0,-0.153937244271021,-1.05094370729049
5,"60",311.5999999,"Left",1,1,0,50,"Left","NoStop",0,-0.285249478958984,-1.05094370729049
5,"61",582.4,"Left",1,1,0,50,"Left","NoStop",0,0.582051815672757,-1.05094370729049
5,"62",317.6,"Left",1,1,0,50,"Left","NoStop",0,-0.266033054097097,-1.05094370729049
5,"63",284.1,"Right",1,1,0,50,"Right","NoStop",0,-0.37332475778777,-1.05094370729049
5,"64",316.6,"Right",1,1,0,50,"Right","NoStop",0,-0.269235791520699,-1.05094370729049
5,"65",333,"Left",1,1,0,50,"Left","NoStop",0,-0.216710897773624,-1.05094370729049
5,"66",814.4,"Left",1,0,1,50,"NoGo","Stop",1,1.32508689794846,-1.05094370729049
5,"67",286.5999999,"Right",1,1,0,50,"Right","NoStop",0,-0.365317914549038,-1.05094370729049
5,"68",338.4000001,"Left",1,1,0,50,"Left","NoStop",0,-0.199416115365898,-1.05094370729049
5,"69",760.6,"Left",1,0,1,50,"NoGo","Stop",1,1.15277962455866,-1.05094370729049
5,"70",342.3000001,"Right",1,1,0,50,"Right","NoStop",0,-0.18692543941385,-1.05094370729049
5,"71",744.9000001,"Right",1,0,1,50,"NoGo","Stop",1,1.10249664732838,-1.05094370729049
5,"72",320.5,"Left",1,1,0,50,"Left","NoStop",0,-0.256745115568651,-1.05094370729049
5,"73",805.0999999,"Left",1,0,1,50,"NoGo","Stop",1,1.29530143958869,-1.05094370729049
5,"74",803,"Left",1,0,1,50,"NoGo","Stop",1,1.2885756913194,-1.05094370729049
5,"75",479.8,"Right",1,1,0,50,"Right","NoStop",0,0.253450956011175,-1.05094370729049
5,"76",838.6,"Left",1,0,1,50,"NoGo","Stop",1,1.40259314359963,-1.05094370729049
5,"77",338,"Left",1,1,0,50,"Left","NoStop",0,-0.200697210655613,-1.05094370729049
5,"78",350,"Right",1,1,0,50,"Right","NoStop",0,-0.162264361572387,-1.05094370729049
5,"79",310.8000001,"Left",1,1,0,50,"Left","NoStop",0,-0.287811668257318,-1.05094370729049
5,"80",285.9,"Left",1,1,0,50,"Left","NoStop",0,-0.367559830425286,-1.05094370729049
5,"81",352.2,"Right",1,1,0,50,"Right","NoStop",0,-0.155218339240462,-1.05094370729049
5,"82",466.9,"Right",1,1,0,50,"Right","NoStop",0,0.212135643246706,-1.05094370729049
5,"83",390.3,"Left",1,1,0,50,"Left","NoStop",0,-0.0331940434012196,-1.05094370729049
5,"84",780.1999999,"Right",1,0,1,50,"NoGo","Stop",1,1.21555327774099,-1.05094370729049
5,"85",959.5999999,"Left",1,0,1,50,"NoGo","Stop",1,1.79012437153522,-1.05094370729049
5,"86",386.6999999,"Right",1,1,0,50,"Right","NoStop",0,-0.0447238984464611,-1.05094370729049
5,"87",771.8,"Left",1,0,1,50,"NoGo","Stop",1,1.18865028370301,-1.05094370729049
5,"88",433.1999999,"Left",1,1,0,50,"Left","NoStop",0,0.10420339175104,-1.05094370729049
5,"89",264.4,"Right",1,1,0,50,"Right","NoStop",0,-0.436418685032733,-1.05094370729049
5,"90",348.8,"Right",1,1,0,50,"Right","NoStop",0,-0.16610764648071,-1.05094370729049
5,"91",404.3,"Left",1,1,0,50,"Left","NoStop",0,0.0116442805292107,-1.05094370729049
5,"92",305.9,"Left",1,1,0,50,"Left","NoStop",0,-0.303505081953243,-1.05094370729049
5,"93",314.2,"Left",1,1,0,50,"Left","NoStop",0,-0.276922361337345,-1.05094370729049
5,"94",819.8000001,"Right",1,0,1,50,"NoGo","Stop",1,1.34238168035619,-1.05094370729049
5,"95",341.2,"Left",1,1,0,50,"Left","NoStop",0,-0.190448450900086,-1.05094370729049
5,"96",408.5,"Left",1,1,0,50,"Left","NoStop",0,0.0250957777083398,-1.05094370729049
5,"97",313.7,"Right",1,1,0,50,"Right","NoStop",0,-0.278523730049146,-1.05094370729049
5,"98",783.5,"Left",1,0,1,50,"NoGo","Stop",1,1.22612231155915,-1.05094370729049
5,"99",769.9,"Right",1,0,1,50,"NoGo","Stop",1,1.18256508259816,-1.05094370729049
5,"100",789,"Right",1,0,1,50,"NoGo","Stop",1,1.24373736738897,-1.05094370729049
5,"101",254.7,"Right",1,1,0,50,"Right","NoStop",0,-0.467485238041674,-1.05094370729049
5,"102",443.3000001,"Left",1,1,0,50,"Left","NoStop",0,0.136551040369969,-1.05094370729049
5,"103",804.8,"Left",1,0,1,50,"NoGo","Stop",1,1.29434061868188,-1.05094370729049
5,"104",344.4,"Left",1,1,0,50,"Left","NoStop",0,-0.180199691144559,-1.05094370729049
5,"105",340.5,"Right",1,1,0,50,"Right","NoStop",0,-0.192690367096608,-1.05094370729049
5,"106",785.9000001,"Right",1,0,1,50,"NoGo","Stop",1,1.23380888169607,-1.05094370729049
5,"107",734,"Right",1,0,1,50,"NoGo","Stop",1,1.06758680909085,-1.05094370729049
5,"108",329.9,"Right",1,1,0,50,"Right","NoStop",0,-0.226639383786791,-1.05094370729049
5,"109",427.1999999,"Left",1,1,0,50,"Left","NoStop",0,0.0849869672094267,-1.05094370729049
5,"110",759.4000001,"Right",1,0,1,50,"NoGo","Stop",1,1.14893633997061,-1.05094370729049
5,"111",348.2,"Right",1,1,0,50,"Right","NoStop",0,-0.168029288934871,-1.05094370729049
5,"112",331.5,"Left",1,1,0,50,"Left","NoStop",0,-0.221515003909027,-1.05094370729049
5,"113",788.8000001,"Left",1,0,1,50,"NoGo","Stop",1,1.24309682022452,-1.05094370729049
5,"114",687.7,"Right",1,1,0,50,"Right","NoStop",0,0.919300066378066,-1.05094370729049
5,"115",439.4,"Right",1,1,0,50,"Right","NoStop",0,0.124060364097647,-1.05094370729049
5,"116",340.8000001,"Right",1,0,1,50,"Left","NoStop",0,-0.191729545549253,-1.05094370729049
5,"117",345.1999999,"Right",1,1,0,50,"Right","NoStop",0,-0.177637501525951,-1.05094370729049
5,"118",345.8,"Left",1,1,0,50,"Left","NoStop",0,-0.175715858751516,-1.05094370729049
5,"119",401.5,"Right",1,1,0,50,"Right","NoStop",0,0.00267661574312463,-1.05094370729049
5,"120",371.6999999,"Right",1,1,0,50,"Right","NoStop",0,-0.0927649598004937,-1.05094370729049
5,"121",553.5,"Right",1,1,0,50,"Right","NoStop",0,0.489492704130654,-1.05094370729049
5,"122",342.6,"Right",1,0,1,50,"NoGo","Stop",1,-0.185964618507043,-1.05094370729049
5,"123",749.2,"Right",1,0,1,50,"NoGo","Stop",1,1.1162684179296,-1.05094370729049
5,"124",374.1,"Left",1,1,0,50,"Left","NoStop",0,-0.0850783896635747,-1.05094370729049
5,"125",307.1,"Right",1,1,0,50,"Right","NoStop",0,-0.29966179704492,-1.05094370729049
5,"126",731.4,"Right",1,0,1,50,"NoGo","Stop",1,1.05925969178948,-1.05094370729049
5,"127",289.4,"Right",1,1,0,50,"Right","NoStop",0,-0.356350249442679,-1.05094370729049
5,"128",284.8000001,"Right",1,1,0,50,"Right","NoStop",0,-0.371082841270975,-1.05094370729049
5,"129",370.5,"Left",1,1,0,50,"Left","NoStop",0,-0.0966082443885426,-1.05094370729049
5,"130",746.4000001,"Right",1,0,1,50,"NoGo","Stop",1,1.10730075346379,-1.05094370729049
5,"131",336.6,"Left",1,1,0,50,"Left","NoStop",0,-0.205181043048656,-1.05094370729049
5,"132",418.2,"Left",1,1,0,50,"Left","NoStop",0,0.0561623307172808,-1.05094370729049
5,"133",349.3,"Left",1,1,0,50,"Left","NoStop",0,-0.164506277768909,-1.05094370729049
5,"134",316,"Left",1,1,0,50,"Left","NoStop",0,-0.271157433974861,-1.05094370729049
5,"135",346.6,"Right",1,1,0,50,"Right","NoStop",0,-0.173153668812634,-1.05094370729049
5,"136",479.2,"Left",1,0,1,50,"Right","NoStop",0,0.251529313557013,-1.05094370729049
5,"137",898.1999999,"Right",1,1,0,50,"Right","NoStop",0,1.59347629372605,-1.05094370729049
5,"138",292.1,"Right",1,1,0,50,"Right","NoStop",0,-0.347702858398953,-1.05094370729049
5,"139",780.1,"Right",1,0,1,50,"NoGo","Stop",1,1.21523300431891,-1.05094370729049
5,"140",276.3000001,"Right",1,1,0,50,"Right","NoStop",0,-0.398306109371593,-1.05094370729049
5,"141",311,"Right",1,1,0,50,"Right","NoStop",0,-0.287171121092872,-1.05094370729049
5,"142",226.8000001,"Right",1,0,1,50,"Left","NoStop",0,-0.556841611839901,-1.05094370729049
5,"143",316.2,"Right",1,1,0,50,"Right","NoStop",0,-0.27051688649014,-1.05094370729049
5,"144",309.4000001,"Left",1,1,0,50,"Left","NoStop",0,-0.292295500650361,-1.05094370729049
5,"145",716.7,"Right",1,0,1,50,"NoGo","Stop",1,1.01217945166253,-1.05094370729049
5,"146",776.5999999,"Left",1,0,1,50,"NoGo","Stop",1,1.20402342301602,-1.05094370729049
5,"147",337,"Right",1,1,0,50,"Right","NoStop",0,-0.203899948079215,-1.05094370729049
5,"148",802.4,"Left",1,0,1,50,"NoGo","Stop",1,1.28665404886523,-1.05094370729049
5,"149",398.8,"Left",1,1,0,50,"Left","NoStop",0,-0.00597077530060119,-1.05094370729049
5,"150",760.5,"Left",1,0,1,50,"NoGo","Stop",1,1.1524593508163,-1.05094370729049
5,"151",400.3,"Left",1,1,0,50,"Left","NoStop",0,-0.00116666916519793,-1.05094370729049
5,"152",407.1,"Right",1,1,0,50,"Right","NoStop",0,0.0206119453152969,-1.05094370729049
5,"153",399.4,"Left",1,1,0,50,"Left","NoStop",0,-0.00404913284643999,-1.05094370729049
5,"154",254,"Right",1,1,0,50,"Right","NoStop",0,-0.469727154238195,-1.05094370729049
5,"155",368.5,"Left",1,1,0,50,"Left","NoStop",0,-0.103013719235747,-1.05094370729049
5,"156",353.1,"Right",1,1,0,50,"Right","NoStop",0,-0.15233587555922,-1.05094370729049
5,"157",747,"Right",1,0,1,50,"NoGo","Stop",1,1.10922239559767,-1.05094370729049
5,"158",369.5,"Left",1,1,0,50,"Left","NoStop",0,-0.0998109818121448,-1.05094370729049
5,"159",321.8000001,"Left",1,1,0,50,"Left","NoStop",0,-0.252581556597695,-1.05094370729049
5,"160",299.8,"Left",1,1,0,50,"Left","NoStop",0,-0.323041780237216,-1.05094370729049
5,"161",773,"Left",1,0,1,50,"NoGo","Stop",1,1.19249356861133,-1.05094370729049
5,"162",266.7,"Left",1,1,0,50,"Left","NoStop",0,-0.429052388958448,-1.05094370729049
5,"163",269.4000001,"Left",1,1,0,50,"Left","NoStop",0,-0.420404997594448,-1.05094370729049
5,"164",316.1,"Left",1,1,0,50,"Left","NoStop",0,-0.270837160232501,-1.05094370729049
5,"165",314.5,"Left",1,1,0,50,"Left","NoStop",0,-0.275961540110264,-1.05094370729049
5,"166",522.4000001,"Right",1,1,0,50,"Right","NoStop",0,0.389887570576901,-1.05094370729049
5,"167",744.0999999,"Left",1,0,1,50,"NoGo","Stop",1,1.09993445674895,-1.05094370729049
5,"168",727.8,"Left",1,0,1,50,"NoGo","Stop",1,1.04772983706451,-1.05094370729049
5,"169",630.1,"Right",1,0,1,50,"NoGo","Stop",1,0.734822390778581,-1.05094370729049
5,"170",301.6,"Left",1,1,0,50,"Left","NoStop",0,-0.317276852874732,-1.05094370729049
5,"171",461.6,"Right",1,1,0,50,"Right","NoStop",0,0.195161134901615,-1.05094370729049
5,"172",302.1,"Left",1,1,0,50,"Left","NoStop",0,-0.315675484162931,-1.05094370729049
5,"173",468.5,"Left",1,1,0,50,"Left","NoStop",0,0.21726002312447,-1.05094370729049
5,"174",526.3000001,"Right",1,1,0,50,"Right","NoStop",0,0.402378246528949,-1.05094370729049
5,"175",526.5,"Right",1,1,0,50,"Right","NoStop",0,0.403018793693396,-1.05094370729049
5,"176",455.4,"Left",1,1,0,50,"Left","NoStop",0,0.175304162875281,-1.05094370729049
5,"177",318.1,"Left",1,1,0,50,"Left","NoStop",0,-0.264431685385296,-1.05094370729049
5,"178",415.3,"Left",1,0,1,50,"Right","NoStop",0,0.0468743921888346,-1.05094370729049
5,"179",743.5999999,"Right",1,0,1,50,"NoGo","Stop",1,1.09833308803715,-1.05094370729049
5,"180",375.1,"Right",1,1,0,50,"Right","NoStop",0,-0.0818756522399726,-1.05094370729049
5,"181",401.5,"Right",1,1,0,50,"Right","NoStop",0,0.00267661574312463,-1.05094370729049
5,"182",331.2,"Left",1,0,1,50,"NoGo","Stop",1,-0.222475825136108,-1.05094370729049
5,"183",339.4,"Left",1,1,0,50,"Left","NoStop",0,-0.19621337826257,-1.05094370729049
5,"184",300.9,"Left",1,1,0,50,"Left","NoStop",0,-0.319518769071254,-1.05094370729049
5,"185",318.3000001,"Right",1,1,0,50,"Right","NoStop",0,-0.263791137580302,-1.05094370729049
5,"186",355.3,"Right",1,1,0,50,"Right","NoStop",0,-0.145289853227296,-1.05094370729049
5,"187",293.5999999,"Left",1,1,0,50,"Left","NoStop",0,-0.342898752583823,-1.05094370729049
5,"188",312.3,"Left",1,1,0,50,"Left","NoStop",0,-0.283007562442189,-1.05094370729049
5,"189",310.3,"Left",1,1,0,50,"Left","NoStop",0,-0.289413037289393,-1.05094370729049
5,"190",315.8,"Right",1,1,0,50,"Right","NoStop",0,-0.271797981459581,-1.05094370729049
5,"191",757.6999999,"Right",1,0,1,50,"NoGo","Stop",1,1.14349168570994,-1.05094370729049
5,"192",708.4,"Right",1,0,1,50,"NoGo","Stop",1,0.98559673104663,-1.05094370729049
5,"193",363.1,"Left",1,1,0,50,"Left","NoStop",0,-0.120308501323199,-1.05094370729049
5,"194",763.3,"Left",1,0,1,50,"NoGo","Stop",1,1.16142701560239,-1.05094370729049
5,"195",438.8,"Left",1,1,0,50,"Left","NoStop",0,0.122138721643486,-1.05094370729049
5,"196",321.4,"Right",1,1,0,50,"Right","NoStop",0,-0.253862651887409,-1.05094370729049
5,"197",775.2,"Left",1,0,1,50,"NoGo","Stop",1,1.19953959094326,-1.05094370729049
5,"198",366.7,"Left",1,1,0,50,"Left","NoStop",0,-0.108778646598231,-1.05094370729049
5,"199",339.9,"Right",1,1,0,50,"Right","NoStop",0,-0.194612009550769,-1.05094370729049
