"id","trial_number","rt","response","attempt","correct","incorrect","ssd","answer","task","stop","rt_z","ssd_z"
2,1,126.2,"Right",1,1,0,250,"Right","NoStop",0,-0.816702633643475,0.435759309670453
2,2,142.7,"Left",1,1,0,250,"Left","NoStop",0,-0.765716031422249,0.435759309670453
2,3,135.5,"Right",1,1,0,250,"Right","NoStop",0,-0.787964730573329,0.435759309670453
2,4,106.9,"Right",1,0,1,250,"NoGo","Stop",1,-0.876341507756789,0.435759309670453
2,5,158.6,"Right",1,1,0,200,"Right","NoStop",0,-0.716583487463612,0.122920968637714
2,6,238.2,"Left",1,1,0,200,"Left","NoStop",0,-0.470611757959997,0.122920968637714
2,7,146.2,"Right",1,1,0,200,"Right","NoStop",0,-0.75490069155714,0.122920968637714
2,8,187.3,"Left",1,1,0,200,"Left","NoStop",0,-0.627897700569721,0.122920968637714
2,9,192.6,"Right",1,1,0,200,"Right","NoStop",0,-0.611520185916842,0.122920968637714
2,10,221.4,"Right",1,0,1,200,"NoGo","Stop",1,-0.522525389312519,0.122920968637714
2,11,208.3,"Right",1,1,0,150,"Right","NoStop",0,-0.563005661379069,-0.189917372395026
2,12,234.4,"Right",1,0,1,150,"NoGo","Stop",1,-0.482354126956401,-0.189917372395026
2,13,1053.6,"Right",1,0,1,100,"NoGo","Stop",1,2.04905342089989,-0.502755713427766
2,14,306.4,"Left",1,1,0,50,"Left","NoStop",0,-0.259867135445594,-0.815594054460505
2,15,395.5,"Right",1,1,0,50,"Right","NoStop",0,0.0154605165490298,-0.815594054460505
2,16,1449.868,"NoGo",NA,1,0,50,"NoGo","Stop",1,3.27356002023329,-0.815594054460505
2,17,336.4,"Right",1,1,0,100,"Right","NoStop",0,-0.167164222316091,-0.502755713427766
2,18,263.6,"Right",1,1,0,100,"Right","NoStop",0,-0.392123291510351,-0.502755713427766
2,19,400.1,"Left",1,1,0,100,"Left","NoStop",0,0.029674963228887,-0.502755713427766
2,20,363.8,"Left",1,1,0,100,"Left","NoStop",0,-0.0824955616578116,-0.502755713427766
2,21,319.4,"Left",1,1,0,100,"Left","NoStop",0,-0.219695873089476,-0.502755713427766
2,22,279.6,"Right",1,1,0,100,"Right","NoStop",0,-0.342681737841283,-0.502755713427766
2,23,357.2,"Right",1,1,0,100,"Right","NoStop",0,-0.102890202546302,-0.502755713427766
2,24,1399.86,"NoGo",NA,1,0,100,"NoGo","Stop",1,3.11903044424062,-0.502755713427766
2,25,247,"Right",1,0,1,150,"NoGo","Stop",1,-0.44341890344201,-0.189917372395026
2,26,297.1,"Left",1,1,0,100,"Left","NoStop",0,-0.28860503851574,-0.502755713427766
2,27,312.2,"Left",1,1,0,100,"Left","NoStop",0,-0.241944572240557,-0.502755713427766
2,28,316.5,"Left",1,0,1,100,"NoGo","Stop",1,-0.228657154691995,-0.502755713427766
2,29,399.1,"Right",1,1,0,50,"Right","NoStop",0,0.0265848661245703,-0.815594054460505
2,30,519.5,"Right",1,1,0,50,"Right","NoStop",0,0.398632557484309,-0.815594054460505
2,31,1449.95,"NoGo",NA,1,0,50,"NoGo","Stop",1,3.27381340819584,-0.815594054460505
2,32,1399.901,"NoGo",NA,1,0,100,"NoGo","Stop",1,3.11915713822189,-0.502755713427766
2,33,369.3,"Left",1,1,0,150,"Left","NoStop",0,-0.0655000275840694,-0.189917372395026
2,34,1349.854,"NoGo",NA,1,0,150,"NoGo","Stop",1,2.96450704844215,-0.189917372395026
2,35,1299.808,"NoGo",NA,1,0,200,"NoGo","Stop",1,2.80986004875952,0.122920968637714
2,36,250.8,"Right",1,1,0,250,"Right","NoStop",0,-0.431676534445606,0.435759309670453
2,37,201.5,"Left",1,1,0,250,"Left","NoStop",0,-0.584018321688423,0.435759309670453
2,38,256.3,"Right",1,1,0,250,"Right","NoStop",0,-0.414681000371864,0.435759309670453
2,39,172.3,"Left",1,1,0,250,"Left","NoStop",0,-0.674249157134472,0.435759309670453
2,40,189.4,"Left",1,1,0,250,"Left","NoStop",0,-0.621408496650656,0.435759309670453
2,41,250.4,"Right",1,1,0,250,"Right","NoStop",0,-0.432912573287333,0.435759309670453
2,42,204.2,"Right",1,1,0,250,"Right","NoStop",0,-0.575675059506767,0.435759309670453
2,43,225.4,"Left",1,0,1,250,"NoGo","Stop",1,-0.510165000895252,0.435759309670453
2,44,471.8,"Right",1,1,0,200,"Right","NoStop",0,0.251234925608399,0.122920968637714
2,45,1299.944,"NoGo",NA,1,0,200,"NoGo","Stop",1,2.8102803019657,0.122920968637714
2,46,190,"Right",1,1,0,250,"Right","NoStop",0,-0.619554438388066,0.435759309670453
2,47,199.7,"Right",1,1,0,250,"Right","NoStop",0,-0.589580496476193,0.435759309670453
2,48,143.5,"Right",1,0,1,250,"NoGo","Stop",1,-0.763243953738795,0.435759309670453
2,49,352,"Right",1,1,0,200,"Right","NoStop",0,-0.118958707488749,0.122920968637714
2,50,311.8,"Right",1,1,0,200,"Right","NoStop",0,-0.243180611082283,0.122920968637714
2,51,419.6,"Left",1,1,0,200,"Left","NoStop",0,0.089931856763064,0.122920968637714
2,52,1299.865,"NoGo",NA,1,0,200,"NoGo","Stop",1,2.81003618429446,0.122920968637714
2,53,201.1,"Right",1,1,0,250,"Right","NoStop",0,-0.585254360530149,0.435759309670453
2,54,211.2,"Left",1,1,0,250,"Left","NoStop",0,-0.55404437977655,0.435759309670453
2,55,284.4,"Right",1,1,0,250,"Right","NoStop",0,-0.327849271740563,0.435759309670453
2,56,221.6,"Left",1,1,0,250,"Left","NoStop",0,-0.521907369891656,0.435759309670453
2,57,186.3,"Left",1,0,1,250,"NoGo","Stop",1,-0.630987797674038,0.435759309670453
2,58,299.6,"Right",1,1,0,200,"Right","NoStop",0,-0.280879795754948,0.122920968637714
2,59,329.4,"Right",1,1,0,200,"Right","NoStop",0,-0.188794902046308,0.122920968637714
2,60,418.6,"Left",1,1,0,200,"Left","NoStop",0,0.0868417596587472,0.122920968637714
2,61,1299.905,"NoGo",NA,1,0,200,"NoGo","Stop",1,2.81015978817863,0.122920968637714
2,62,139.8,"Left",1,0,1,250,"NoGo","Stop",1,-0.774677313024767,0.435759309670453
2,63,471.5,"Right",1,1,0,200,"Right","NoStop",0,0.250307896477104,0.122920968637714
2,64,467.2,"Right",1,1,0,200,"Right","NoStop",0,0.237020478928542,0.122920968637714
2,65,359,"Left",1,1,0,200,"Left","NoStop",0,-0.0973280277585321,0.122920968637714
2,66,363.7,"Left",1,1,0,200,"Left","NoStop",0,-0.0828045713682433,0.122920968637714
2,67,236.6,"Left",1,1,0,200,"Left","NoStop",0,-0.475555913326904,0.122920968637714
2,68,416.5,"Right",1,1,0,200,"Right","NoStop",0,0.0803525557396819,0.122920968637714
2,69,1300.124,"NoGo",NA,1,0,200,"NoGo","Stop",1,2.81083651944448,0.122920968637714
2,70,209.1,"Right",1,1,0,250,"Right","NoStop",0,-0.560533583695615,0.435759309670453
2,71,1249.913,"NoGo",NA,1,0,250,"NoGo","Stop",1,2.65567965373963,0.435759309670453
2,72,208.1,"Left",1,1,0,300,"Left","NoStop",0,-0.563623680799932,0.748597650703193
2,73,316.1,"Left",1,1,0,300,"Left","NoStop",0,-0.229893193533721,0.748597650703193
2,74,173.2,"Right",1,1,0,300,"Right","NoStop",0,-0.671468069740587,0.748597650703193
2,75,242.7,"Left",1,1,0,300,"Left","NoStop",0,-0.456706320990572,0.748597650703193
2,76,229.6,"Right",1,1,0,300,"Right","NoStop",0,-0.497186593057122,0.748597650703193
2,77,189.1,"Left",1,1,0,300,"Left","NoStop",0,-0.622335525781951,0.748597650703193
2,78,534.7,"Left",1,1,0,300,"Left","NoStop",0,0.445602033469924,0.748597650703193
2,79,227.7,"Left",1,0,1,300,"NoGo","Stop",1,-0.503057777555323,0.748597650703193
2,80,327.9,"Left",1,1,0,250,"Left","NoStop",0,-0.193430047702784,0.435759309670453
2,81,227.1,"Left",1,1,0,250,"Left","NoStop",0,-0.504911835817914,0.435759309670453
2,82,436,"Right",1,1,0,250,"Right","NoStop",0,0.140609449273859,0.435759309670453
2,83,258.2,"Right",1,1,0,250,"Right","NoStop",0,-0.408809815873662,0.435759309670453
2,84,265.7,"Left",1,1,0,250,"Left","NoStop",0,-0.385634087591286,0.435759309670453
2,85,293.2,"Right",1,1,0,250,"Right","NoStop",0,-0.300656417222575,0.435759309670453
2,86,201.5,"Right",1,1,0,250,"Right","NoStop",0,-0.584018321688423,0.435759309670453
2,87,111.8,"Right",1,1,0,250,"Right","NoStop",0,-0.861200031945637,0.435759309670453
2,88,1249.919,"NoGo",NA,1,0,250,"NoGo","Stop",1,2.65569819432226,0.435759309670453
2,89,117.3,"Right",1,1,0,300,"Right","NoStop",0,-0.844204497871894,0.748597650703193
2,90,248,"Left",1,1,0,300,"Left","NoStop",0,-0.440328806337693,0.748597650703193
2,91,180.1,"Left",1,1,0,300,"Left","NoStop",0,-0.650146399720802,0.748597650703193
2,92,1199.824,"NoGo",NA,1,0,300,"NoGo","Stop",1,2.50089977988151,0.748597650703193
2,93,87.40000001,"Right",1,0,1,350,"NoGo","Stop",1,-0.936598401260065,1.06143599173593
2,94,350.2,"Right",1,1,0,300,"Right","NoStop",0,-0.12452088227652,0.748597650703193
2,95,269.1,"Left",1,1,0,300,"Left","NoStop",0,-0.375127757436609,0.748597650703193
2,96,222.4,"Left",1,1,0,300,"Left","NoStop",0,-0.519435292208202,0.748597650703193
2,97,194.1,"Right",1,1,0,300,"Right","NoStop",0,-0.606885040260367,0.748597650703193
2,98,209.7,"Left",1,1,0,300,"Left","NoStop",0,-0.558679525433025,0.748597650703193
2,99,332.3,"Left",1,1,0,300,"Left","NoStop",0,-0.17983362044379,0.748597650703193
2,100,104.3,"Right",1,1,0,300,"Right","NoStop",0,-0.884375760228012,0.748597650703193
2,101,119.9,"Right",1,1,0,300,"Right","NoStop",0,-0.836170245400671,0.748597650703193
2,102,157.7,"Right",1,1,0,300,"Right","NoStop",0,-0.719364574857497,0.748597650703193
2,103,1199.883,"NoGo",NA,1,0,300,"NoGo","Stop",1,2.50108209561066,0.748597650703193
2,104,39.80000001,"Right",1,0,1,350,"NoGo","Stop",1,-1.08368702342554,1.06143599173593
2,105,139.6,"Right",1,1,0,300,"Right","NoStop",0,-0.775295332445631,0.748597650703193
2,106,127.1,"Right",1,0,1,300,"NoGo","Stop",1,-0.81392154624959,0.748597650703193
2,107,217,"Left",1,1,0,250,"Left","NoStop",0,-0.536121816571513,0.435759309670453
2,108,229.2,"Right",1,1,0,250,"Right","NoStop",0,-0.498422631898848,0.435759309670453
2,109,1249.831,"NoGo",NA,1,0,250,"NoGo","Stop",1,2.65542626577708,0.435759309670453
2,110,127.8,"Left",1,1,0,300,"Left","NoStop",0,-0.811758478276568,0.748597650703193
2,111,199.6,"Left",1,1,0,300,"Left","NoStop",0,-0.589889506186625,0.748597650703193
2,112,184.6,"Right",1,1,0,300,"Right","NoStop",0,-0.636240962751376,0.748597650703193
2,113,219.7,"Right",1,1,0,300,"Right","NoStop",0,-0.527778554389858,0.748597650703193
2,114,146.7,"Right",1,1,0,300,"Right","NoStop",0,-0.753355643004981,0.748597650703193
2,115,273.5,"Left",1,1,0,300,"Left","NoStop",0,-0.361531330177616,0.748597650703193
2,116,133.4,"Left",1,1,0,300,"Left","NoStop",0,-0.794453934492395,0.748597650703193
2,117,1199.822,"NoGo",NA,1,0,300,"NoGo","Stop",1,2.5008935996873,0.748597650703193
2,118,161.3,"Left",1,0,1,350,"NoGo","Stop",1,-0.708240225281957,1.06143599173593
2,119,231.3,"Left",1,1,0,300,"Left","NoStop",0,-0.491933427979783,0.748597650703193
2,120,220.8,"Right",1,1,0,300,"Right","NoStop",0,-0.524379447575109,0.748597650703193
2,121,419,"Left",1,1,0,300,"Left","NoStop",0,0.0880777985004738,0.748597650703193
2,122,158.5,"Left",1,1,0,300,"Left","NoStop",0,-0.716892497174044,0.748597650703193
2,123,218.2,"Right",1,1,0,300,"Right","NoStop",0,-0.532413700046333,0.748597650703193
2,124,142.5,"Left",1,1,0,300,"Left","NoStop",0,-0.766334050843112,0.748597650703193
2,125,1200.163,"NoGo",NA,1,0,300,"NoGo","Stop",1,2.50194732279987,0.748597650703193
2,126,104.3,"Left",1,1,0,350,"Left","NoStop",0,-0.884375760228012,1.06143599173593
2,127,57.89999998,"Left",1,1,0,350,"Left","NoStop",0,-1.02775626593011,1.06143599173593
2,128,166,"Left",1,1,0,350,"Left","NoStop",0,-0.693716768891668,1.06143599173593
2,129,29.30000001,"Left",1,1,0,350,"Left","NoStop",0,-1.11613304302087,1.06143599173593
2,130,289.3,"Right",1,1,0,350,"Right","NoStop",0,-0.312707795929411,1.06143599173593
2,131,109.7,"Left",1,0,1,350,"NoGo","Stop",1,-0.867689235864702,1.06143599173593
2,132,263,"Left",1,1,0,300,"Left","NoStop",0,-0.393977349772942,0.748597650703193
2,133,166.6,"Left",1,1,0,300,"Left","NoStop",0,-0.691862710629078,0.748597650703193
2,134,123.9,"Left",1,1,0,300,"Left","NoStop",0,-0.823809856983404,0.748597650703193
2,135,106.9,"Left",1,1,0,300,"Left","NoStop",0,-0.876341507756789,0.748597650703193
2,136,241.8,"Right",1,1,0,300,"Right","NoStop",0,-0.459487408384457,0.748597650703193
2,137,201.1,"Left",1,1,0,300,"Left","NoStop",0,-0.585254360530149,0.748597650703193
2,138,179.5,"Right",1,1,0,300,"Right","NoStop",0,-0.652000457983392,0.748597650703193
2,139,162.5,"Right",1,1,0,300,"Right","NoStop",0,-0.704532108756777,0.748597650703193
2,140,290.3,"Left",1,1,0,300,"Left","NoStop",0,-0.309617698825094,0.748597650703193
2,141,298.9,"Left",1,1,0,300,"Left","NoStop",0,-0.28304286372797,0.748597650703193
2,142,1199.944,"NoGo",NA,1,0,300,"NoGo","Stop",1,2.50127059153403,0.748597650703193
2,143,343.4,"Right",1,1,0,350,"Right","NoStop",0,-0.145533542585874,1.06143599173593
2,144,75.30000001,"Right",1,1,0,350,"Right","NoStop",0,-0.973988576222298,1.06143599173593
2,145,92.90000001,"Right",1,1,0,350,"Right","NoStop",0,-0.919602867186323,1.06143599173593
2,146,144.2,"Right",1,0,1,350,"NoGo","Stop",1,-0.761080885765773,1.06143599173593
2,147,339.9,"Right",1,0,1,300,"Left","NoStop",0,-0.156348882450982,0.748597650703193
2,148,226.6,"Left",1,1,0,300,"Left","NoStop",0,-0.506456884370072,0.748597650703193
2,149,284.7,"Right",1,1,0,300,"Right","NoStop",0,-0.326922242609268,0.748597650703193
2,150,292.2,"Right",1,1,0,300,"Right","NoStop",0,-0.303746514326892,0.748597650703193
2,151,228.1,"Right",1,1,0,300,"Right","NoStop",0,-0.501821738713597,0.748597650703193
2,152,253.7,"Right",1,1,0,300,"Right","NoStop",0,-0.422715252843088,0.748597650703193
2,153,807.5,"Left",1,1,0,300,"Left","NoStop",0,1.28858052352754,0.748597650703193
2,154,278.9,"Left",1,1,0,300,"Left","NoStop",0,-0.344844805814305,0.748597650703193
2,155,196.2,"Left",1,0,1,300,"NoGo","Stop",1,-0.600395836341302,0.748597650703193
2,156,625.4,"Right",1,1,0,250,"Right","NoStop",0,0.725873840831454,0.435759309670453
2,157,368.2,"Left",1,1,0,250,"Left","NoStop",0,-0.0688991343988179,0.435759309670453
2,158,301,"Left",1,1,0,250,"Left","NoStop",0,-0.276553659808905,0.435759309670453
2,159,262.8,"Right",1,1,0,250,"Right","NoStop",0,-0.394595369193805,0.435759309670453
2,160,310.4,"Left",1,1,0,250,"Left","NoStop",0,-0.247506747028327,0.435759309670453
2,161,360.4,"Right",1,1,0,250,"Right","NoStop",0,-0.0930018918124887,0.435759309670453
2,162,345.5,"Left",1,1,0,250,"Left","NoStop",0,-0.139044338666808,0.435759309670453
2,163,245.1,"Left",1,1,0,250,"Left","NoStop",0,-0.449290087940212,0.435759309670453
2,164,429.2,"Left",1,1,0,250,"Left","NoStop",0,0.119596788964505,0.435759309670453
2,165,274.3,"Left",1,1,0,250,"Left","NoStop",0,-0.359059252494162,0.435759309670453
2,166,242.9,"Left",1,1,0,250,"Left","NoStop",0,-0.456088301569709,0.435759309670453
2,167,174,"Left",1,0,1,250,"NoGo","Stop",1,-0.668995992057134,0.435759309670453
2,168,331.8,"Right",1,1,0,200,"Right","NoStop",0,-0.181378668995948,0.122920968637714
2,169,337.3,"Left",1,1,0,200,"Left","NoStop",0,-0.164383134922206,0.122920968637714
2,170,199.1,"Right",1,1,0,200,"Right","NoStop",0,-0.591434554738783,0.122920968637714
2,171,185.9,"Left",1,1,0,200,"Left","NoStop",0,-0.632223836515764,0.122920968637714
2,172,198.7,"Left",1,0,1,200,"NoGo","Stop",1,-0.59267059358051,0.122920968637714
2,173,1349.893,"NoGo",NA,1,0,150,"NoGo","Stop",1,2.96462756222922,-0.189917372395026
2,174,211.1,"Right",1,1,0,200,"Right","NoStop",0,-0.554353389486982,0.122920968637714
2,175,235,"Right",1,0,1,200,"NoGo","Stop",1,-0.480500068693811,0.122920968637714
2,176,269.9,"Right",1,1,0,150,"Right","NoStop",0,-0.372655679753156,-0.189917372395026
2,177,1349.838,"NoGo",NA,1,0,150,"NoGo","Stop",1,2.96445760688848,-0.189917372395026
2,178,247.7,"Left",1,1,0,200,"Left","NoStop",0,-0.441255835468988,0.122920968637714
2,179,323.6,"Right",1,1,0,200,"Right","NoStop",0,-0.206717465251346,0.122920968637714
2,180,1299.833,"NoGo",NA,1,0,200,"NoGo","Stop",1,2.80993730118712,0.122920968637714
2,181,250.6,"Left",1,1,0,250,"Left","NoStop",0,-0.43229455386647,0.435759309670453
2,182,161.5,"Left",1,1,0,250,"Left","NoStop",0,-0.707622205861093,0.435759309670453
2,183,213.7,"Left",1,1,0,250,"Left","NoStop",0,-0.546319137015758,0.435759309670453
2,184,312.9,"Left",1,1,0,250,"Left","NoStop",0,-0.239781504267535,0.435759309670453
2,185,358.2,"Right",1,1,0,250,"Right","NoStop",0,-0.0998001054419856,0.435759309670453
2,186,243.8,"Left",1,1,0,250,"Left","NoStop",0,-0.453307214175823,0.435759309670453
2,187,1249.808,"NoGo",NA,1,0,250,"NoGo","Stop",1,2.65535519354368,0.435759309670453
2,188,128.2,"Left",1,1,0,300,"Left","NoStop",0,-0.810522439434842,0.748597650703193
2,189,152.8,"Right",1,1,0,300,"Right","NoStop",0,-0.734506050668649,0.748597650703193
2,190,240.5,"Left",1,1,0,300,"Left","NoStop",0,-0.463504534620069,0.748597650703193
2,191,111.5,"Left",1,1,0,300,"Left","NoStop",0,-0.862127061076932,0.748597650703193
2,192,209.5,"Right",1,0,1,300,"NoGo","Stop",1,-0.559297544853889,0.748597650703193
2,193,255.1,"Right",1,1,0,250,"Right","NoStop",0,-0.418389116897044,0.435759309670453
2,194,304,"Right",1,1,0,250,"Right","NoStop",0,-0.267283368495954,0.435759309670453
2,195,280.4,"Left",1,1,0,250,"Left","NoStop",0,-0.34020966015783,0.435759309670453
2,196,183.4,"Right",1,1,0,250,"Right","NoStop",0,-0.639949079276556,0.435759309670453
2,197,1249.819,"NoGo",NA,1,0,250,"NoGo","Stop",1,2.65538918461182,0.435759309670453
2,198,159.6,"Right",1,0,1,300,"NoGo","Stop",1,-0.713493390359295,0.748597650703193
2,199,367.2,"Right",1,1,0,250,"Right","NoStop",0,-0.0719892315031347,0.435759309670453
2,200,227.6,"Left",1,0,1,250,"NoGo","Stop",1,-0.503366787265755,0.435759309670453
2,201,1299.885,"NoGo",NA,1,0,200,"NoGo","Stop",1,2.81009798623655,0.122920968637714
2,202,288.1,"Right",1,1,0,250,"Right","NoStop",0,-0.316415912454591,0.435759309670453
2,203,344.5,"Right",1,1,0,250,"Right","NoStop",0,-0.142134435771125,0.435759309670453
2,204,242.5,"Right",1,1,0,250,"Right","NoStop",0,-0.457324340411435,0.435759309670453
2,205,409.9,"Left",1,1,0,250,"Left","NoStop",0,0.0599579148511912,0.435759309670453
2,206,199.3,"Left",1,0,1,250,"NoGo","Stop",1,-0.59081653531792,0.435759309670453
2,207,573.9,"Left",1,1,0,200,"Left","NoStop",0,0.566733839959141,0.122920968637714
2,208,464,"Left",1,1,0,200,"Left","NoStop",0,0.227132168194728,0.122920968637714
2,209,404.9,"Right",1,1,0,200,"Right","NoStop",0,0.0445074293296074,0.122920968637714
2,210,349.9,"Left",1,1,0,200,"Left","NoStop",0,-0.125447911407815,0.122920968637714
2,211,1299.817,"NoGo",NA,1,0,200,"NoGo","Stop",1,2.80988785963345,0.122920968637714
2,212,350.3,"Right",1,1,0,250,"Right","NoStop",0,-0.124211872566088,0.435759309670453
2,213,331.2,"Left",1,1,0,250,"Left","NoStop",0,-0.183232727258538,0.435759309670453
2,214,450.3,"Left",1,1,0,250,"Left","NoStop",0,0.184797837865589,0.435759309670453
2,215,268.1,"Right",1,1,0,250,"Right","NoStop",0,-0.378217854540926,0.435759309670453
2,216,247.7,"Right",1,1,0,250,"Right","NoStop",0,-0.441255835468988,0.435759309670453
2,217,363.8,"Left",1,1,0,250,"Left","NoStop",0,-0.0824955616578116,0.435759309670453
2,218,275.3,"Left",1,1,0,250,"Left","NoStop",0,-0.355969155389845,0.435759309670453
2,219,1249.982,"NoGo",NA,1,0,250,"NoGo","Stop",1,2.65589287043983,0.435759309670453
2,220,239.3,"Left",1,1,0,300,"Left","NoStop",0,-0.467212651145249,0.748597650703193
2,221,312,"Left",1,1,0,300,"Left","NoStop",0,-0.24256259166142,0.748597650703193
2,222,1199.996,"NoGo",NA,1,0,300,"NoGo","Stop",1,2.50143127658345,0.748597650703193
2,223,134.3,"Left",1,0,1,350,"NoGo","Stop",1,-0.791672847098509,1.06143599173593
2,224,1199.79,"NoGo",NA,1,0,300,"NoGo","Stop",1,2.50079471657996,0.748597650703193
2,225,83.80000001,"Right",1,1,0,350,"Right","NoStop",0,-0.947722750835605,1.06143599173593
2,226,251.1,"Right",1,0,1,350,"NoGo","Stop",1,-0.430749505314311,1.06143599173593
2,227,1200.048,"NoGo",NA,1,0,300,"NoGo","Stop",1,2.50159196163288,0.748597650703193
2,228,200.5,"Right",1,1,0,350,"Right","NoStop",0,-0.587108418792739,1.06143599173593
2,229,310.6,"Right",1,1,0,350,"Right","NoStop",0,-0.246888727607463,1.06143599173593
2,230,1149.904,"NoGo",NA,1,0,350,"NoGo","Stop",1,2.34664213243402,1.06143599173593
2,231,105.8,"Left",1,0,1,400,"NoGo","Stop",1,-0.879740614571537,1.37427433276867
2,232,366.2,"Right",1,1,0,350,"Right","NoStop",0,-0.0750793286074514,1.06143599173593
2,233,271,"Right",1,1,0,350,"Right","NoStop",0,-0.369256572938408,1.06143599173593
2,234,321.1,"Left",1,1,0,350,"Left","NoStop",0,-0.214442708012137,1.06143599173593
2,235,160.5,"Right",1,0,1,350,"NoGo","Stop",1,-0.71071230296541,1.06143599173593
2,236,354.5,"Left",1,1,0,300,"Left","NoStop",0,-0.111233464727958,0.748597650703193
2,237,261,"Right",1,1,0,300,"Right","NoStop",0,-0.400157543981575,0.748597650703193
2,238,250.2,"Right",1,1,0,300,"Right","NoStop",0,-0.433530592708196,0.748597650703193
2,239,155.4,"Right",1,1,0,300,"Right","NoStop",0,-0.726471798197426,0.748597650703193
2,240,1199.798,"NoGo",NA,1,0,300,"NoGo","Stop",1,2.5008194373568,0.748597650703193
3,1,137.3,"Right",1,1,0,250,"Right","NoStop",0,-0.782402555785559,0.435759309670453
3,2,156.1,"Right",1,1,0,250,"Right","NoStop",0,-0.724308730224404,0.435759309670453
3,3,155.6,"Right",1,1,0,250,"Right","NoStop",0,-0.725853778776562,0.435759309670453
3,4,111.1,"Right",1,0,1,250,"NoGo","Stop",1,-0.863363099918658,0.435759309670453
3,5,314.2,"Left",1,1,0,200,"Left","NoStop",0,-0.235764378031923,0.122920968637714
3,6,431.1999999,"Right",1,0,1,200,"NoGo","Stop",1,0.125776982864129,0.122920968637714
3,7,510,"Right",1,1,0,150,"Right","NoStop",0,0.3692766349933,-0.189917372395026
3,8,1349.587,"NoGo",NA,1,0,150,"NoGo","Stop",1,2.9636819925153,-0.189917372395026
3,9,1299.548,"NoGo",NA,1,0,200,"NoGo","Stop",1,2.80905662351239,0.122920968637714
3,10,290.9,"Right",1,1,0,250,"Right","NoStop",0,-0.307763640562504,0.435759309670453
3,11,251.6,"Right",1,0,1,250,"NoGo","Stop",1,-0.429204456762153,0.435759309670453
3,12,1299.613,"NoGo",NA,1,0,200,"NoGo","Stop",1,2.80925747982417,0.122920968637714
3,13,410.9,"Right",1,1,0,250,"Right","NoStop",0,0.063048011955508,0.435759309670453
3,14,132.2,"Right",1,1,0,250,"Right","NoStop",0,-0.798162051017575,0.435759309670453
3,15,375.3000001,"Left",1,1,0,250,"Left","NoStop",0,-0.0469594446491592,0.435759309670453
3,16,235.6,"Left",1,1,0,250,"Left","NoStop",0,-0.478646010431221,0.435759309670453
3,17,400.7,"Right",1,1,0,250,"Right","NoStop",0,0.031529021491477,0.435759309670453
3,18,105.7,"Right",1,1,0,250,"Right","NoStop",0,-0.880049624281969,0.435759309670453
3,19,260.5,"Right",1,1,0,250,"Right","NoStop",0,-0.401702592533734,0.435759309670453
3,20,367.6999999,"Left",1,1,0,250,"Left","NoStop",0,-0.0704441832599859,0.435759309670453
3,21,1249.483,"NoGo",NA,1,0,250,"NoGo","Stop",1,2.65435091198477,0.435759309670453
3,22,296.7,"Right",1,1,0,300,"Right","NoStop",0,-0.289841077357467,0.748597650703193
3,23,42.5,"Left",1,1,0,300,"Left","NoStop",0,-1.07534376127479,0.748597650703193
3,24,132.9,"Right",1,1,0,300,"Right","NoStop",0,-0.795998983044553,0.748597650703193
3,25,102.9,"Left",1,0,1,300,"NoGo","Stop",1,-0.888701896174056,0.748597650703193
3,26,432.3,"Left",1,1,0,250,"Left","NoStop",0,0.129176089987887,0.435759309670453
3,27,142.4,"Right",1,1,0,250,"Right","NoStop",0,-0.766643060553544,0.435759309670453
3,28,339.2,"Right",1,1,0,250,"Right","NoStop",0,-0.158511950424004,0.435759309670453
3,29,565.3000001,"Right",1,1,0,250,"Right","NoStop",0,0.540159005171026,0.435759309670453
3,30,224.1,"Left",1,1,0,250,"Left","NoStop",0,-0.514182127130864,0.435759309670453
3,31,270.6,"Left",1,1,0,250,"Left","NoStop",0,-0.370492611780134,0.435759309670453
3,32,242.4,"Right",1,1,0,250,"Right","NoStop",0,-0.457633350121867,0.435759309670453
3,33,183.8,"Left",1,1,0,250,"Left","NoStop",0,-0.638713040434829,0.435759309670453
3,34,407.9000001,"Right",1,1,0,250,"Right","NoStop",0,0.0537777209515675,0.435759309670453
3,35,1249.522,"NoGo",NA,1,0,250,"NoGo","Stop",1,2.65447142577184,0.435759309670453
3,36,112.9,"Left",1,1,0,300,"Left","NoStop",0,-0.857800925130888,0.748597650703193
3,37,106.1,"Left",1,1,0,300,"Left","NoStop",0,-0.878813585440242,0.748597650703193
3,38,251.1,"Right",1,1,0,300,"Right","NoStop",0,-0.430749505314311,0.748597650703193
3,39,184,"Left",1,1,0,300,"Left","NoStop",0,-0.638095021013966,0.748597650703193
3,40,246.6,"Right",1,1,0,300,"Right","NoStop",0,-0.444654942283737,0.748597650703193
3,41,183.1999999,"Right",1,1,0,300,"Right","NoStop",0,-0.640567099006429,0.748597650703193
3,42,300.2,"Left",1,1,0,300,"Left","NoStop",0,-0.279025737492358,0.748597650703193
3,43,1199.494,"NoGo",NA,1,0,300,"NoGo","Stop",1,2.49988004783708,0.748597650703193
3,44,32.0999999,"Left",1,1,0,350,"Left","NoStop",0,-1.10748077146869,1.06143599173593
3,45,252.3000001,"Left",1,1,0,350,"Left","NoStop",0,-0.427041388480121,1.06143599173593
3,46,1149.547,"NoGo",NA,1,0,350,"NoGo","Stop",1,2.34553896776777,1.06143599173593
3,47,90,"Left",1,1,0,400,"Left","NoStop",0,-0.928564148819742,1.37427433276867
3,48,41.19999993,"Right",1,1,0,400,"Right","NoStop",0,-1.07936088772671,1.37427433276867
3,49,84.5,"Left",1,0,1,400,"NoGo","Stop",1,-0.945559682893484,1.37427433276867
3,50,156.2,"Left",1,1,0,350,"Left","NoStop",0,-0.723999720513972,1.06143599173593
3,51,215.6999999,"Left",1,1,0,350,"Left","NoStop",0,-0.540138943116134,1.06143599173593
3,52,164.8000001,"Right",1,1,0,350,"Right","NoStop",0,-0.697424885107838,1.06143599173593
3,53,114.1,"Left",1,0,1,350,"NoGo","Stop",1,-0.854092808605708,1.06143599173593
3,54,136.9,"Left",1,1,0,300,"Left","NoStop",0,-0.783638594627286,0.748597650703193
3,55,143.9,"Left",1,1,0,300,"Left","NoStop",0,-0.762007914897068,0.748597650703193
3,56,142.4,"Right",1,1,0,300,"Right","NoStop",0,-0.766643060553544,0.748597650703193
3,57,156.6999999,"Right",1,1,0,300,"Right","NoStop",0,-0.722454672270824,0.748597650703193
3,58,278.2,"Left",1,1,0,300,"Left","NoStop",0,-0.347007873787327,0.748597650703193
3,59,110.5,"Right",1,1,0,300,"Right","NoStop",0,-0.865217158181248,0.748597650703193
3,60,178,"Left",1,1,0,300,"Left","NoStop",0,-0.656635603639867,0.748597650703193
3,61,1013.1,"Right",1,1,0,300,"Right","NoStop",0,1.92390448817506,0.748597650703193
3,62,80.60000002,"Right",1,0,1,300,"NoGo","Stop",1,-0.957611061538518,0.748597650703193
3,63,266.1999999,"Left",1,1,0,250,"Left","NoStop",0,-0.384089039348138,0.435759309670453
3,64,158.9,"Left",1,1,0,250,"Left","NoStop",0,-0.715656458332317,0.435759309670453
3,65,122.4,"Left",1,1,0,250,"Left","NoStop",0,-0.828445002639879,0.435759309670453
3,66,49.29999995,"Left",1,1,0,250,"Left","NoStop",0,-1.05433110111994,0.435759309670453
3,67,234.8000001,"Right",1,1,0,250,"Right","NoStop",0,-0.481118087805665,0.435759309670453
3,68,382.3,"Right",1,1,0,250,"Right","NoStop",0,-0.0253287652279514,0.435759309670453
3,69,99.69999993,"Right",1,1,0,250,"Right","NoStop",0,-0.898590207124176,0.435759309670453
3,70,169.1,"Left",1,1,0,250,"Left","NoStop",0,-0.684137467868286,0.435759309670453
3,71,197.1999999,"Right",1,1,0,250,"Right","NoStop",0,-0.597305739545995,0.435759309670453
3,72,44.29999995,"Right",1,0,1,250,"NoGo","Stop",1,-1.06978158664152,0.435759309670453
3,73,179.8,"Left",1,1,0,200,"Left","NoStop",0,-0.651073428852097,0.122920968637714
3,74,139.8,"Left",1,1,0,200,"Left","NoStop",0,-0.774677313024767,0.122920968637714
3,75,193.3,"Right",1,1,0,200,"Right","NoStop",0,-0.60935711794382,0.122920968637714
3,76,145.2,"Left",1,1,0,200,"Left","NoStop",0,-0.757990788661457,0.122920968637714
3,77,363.5999999,"Right",1,1,0,200,"Right","NoStop",0,-0.0831135813876847,0.122920968637714
3,78,224.8,"Right",1,1,0,200,"Right","NoStop",0,-0.512019059157842,0.122920968637714
3,79,148.6999999,"Left",1,1,0,200,"Left","NoStop",0,-0.747175449105358,0.122920968637714
3,80,178.1,"Right",1,0,1,200,"NoGo","Stop",1,-0.656326593929435,0.122920968637714
3,81,219.4,"Left",1,1,0,150,"Left","NoStop",0,-0.528705583521153,-0.189917372395026
3,82,213.8000001,"Right",1,1,0,150,"Right","NoStop",0,-0.546010126996317,-0.189917372395026
3,83,428.3,"Left",1,1,0,150,"Left","NoStop",0,0.11681570157062,-0.189917372395026
3,84,218,"Right",1,1,0,150,"Right","NoStop",0,-0.533031719467196,-0.189917372395026
3,85,193.4,"Left",1,0,1,150,"NoGo","Stop",1,-0.609048108233389,-0.189917372395026
3,86,1399.861,"NoGo",NA,1,0,100,"NoGo","Stop",1,3.11903353433772,-0.502755713427766
3,87,246.4,"Right",1,1,0,150,"Right","NoStop",0,-0.4452729617046,-0.189917372395026
3,88,202.3,"Right",1,1,0,150,"Right","NoStop",0,-0.581546244004969,-0.189917372395026
3,89,215.7,"Right",1,1,0,150,"Right","NoStop",0,-0.540138942807125,-0.189917372395026
3,90,203.5,"Right",1,1,0,150,"Right","NoStop",0,-0.577838127479789,-0.189917372395026
3,91,276.1999999,"Left",1,1,0,150,"Left","NoStop",0,-0.35318806830497,-0.189917372395026
3,92,352.0999999,"Right",1,1,0,150,"Right","NoStop",0,-0.118649698087328,-0.189917372395026
3,93,1349.506,"NoGo",NA,1,0,150,"NoGo","Stop",1,2.96343169464985,-0.189917372395026
3,94,142.1,"Right",1,1,0,200,"Right","NoStop",0,-0.767570089684839,0.122920968637714
3,95,158.7,"Right",1,0,1,200,"NoGo","Stop",1,-0.71627447775318,0.122920968637714
3,96,631.8000001,"Right",1,0,1,150,"Left","NoStop",0,0.745650462608091,-0.189917372395026
3,97,202,"Right",1,1,0,150,"Right","NoStop",0,-0.582473273136264,-0.189917372395026
3,98,532.5,"Left",1,1,0,150,"Left","NoStop",0,0.438803819840427,-0.189917372395026
3,99,217.4,"Left",1,1,0,150,"Left","NoStop",0,-0.534885777729786,-0.189917372395026
3,100,269.4,"Right",1,1,0,150,"Right","NoStop",0,-0.374200728305314,-0.189917372395026
3,101,196.2,"Right",1,1,0,150,"Right","NoStop",0,-0.600395836341302,-0.189917372395026
3,102,245.4,"Left",1,1,0,150,"Left","NoStop",0,-0.448363058808917,-0.189917372395026
3,103,194.8000001,"Right",1,0,1,150,"NoGo","Stop",1,-0.604721971978335,-0.189917372395026
3,104,212.0999999,"Right",1,1,0,100,"Right","NoStop",0,-0.551263292691675,-0.502755713427766
3,105,294.6,"Left",1,1,0,100,"Left","NoStop",0,-0.296330281276532,-0.502755713427766
3,106,290.8000001,"Left",1,1,0,100,"Left","NoStop",0,-0.308072649963926,-0.502755713427766
3,107,269.1,"Right",1,1,0,100,"Right","NoStop",0,-0.375127757436609,-0.502755713427766
3,108,453,"Left",1,1,0,100,"Left","NoStop",0,0.193141100047244,-0.502755713427766
3,109,203.5,"Right",1,0,1,100,"NoGo","Stop",1,-0.577838127479789,-0.502755713427766
3,110,317.3,"Right",1,1,0,50,"Right","NoStop",0,-0.226185077008541,-0.815594054460505
3,111,382.4,"Right",1,1,0,50,"Right","NoStop",0,-0.0250197555175199,-0.815594054460505
3,112,1449.484,"NoGo",NA,1,0,50,"NoGo","Stop",1,3.27237342294523,-0.815594054460505
3,113,424.0999999,"Left",1,1,0,100,"Left","NoStop",0,0.10383729342348,-0.502755713427766
3,114,209.6,"Right",1,1,0,100,"Right","NoStop",0,-0.558988535143457,-0.502755713427766
3,115,1399.33,"NoGo",NA,1,0,100,"NoGo","Stop",1,3.11739269277533,-0.502755713427766
3,116,258.4,"Right",1,0,1,150,"NoGo","Stop",1,-0.408191796452799,-0.189917372395026
3,117,490.3000001,"Left",1,1,0,100,"Left","NoStop",0,0.308401722347269,-0.502755713427766
3,118,351.4,"Right",1,1,0,100,"Right","NoStop",0,-0.12081276575134,-0.502755713427766
3,119,256.2,"Right",1,1,0,100,"Right","NoStop",0,-0.414990010082296,-0.502755713427766
3,120,246.0999999,"Right",1,1,0,100,"Right","NoStop",0,-0.446199991144905,-0.502755713427766
3,121,1095.9,"Right",1,1,0,100,"Right","NoStop",0,2.17976452841249,-0.502755713427766
3,122,240,"Right",1,1,0,100,"Right","NoStop",0,-0.465049583172227,-0.502755713427766
3,123,234.3,"Right",1,1,0,100,"Right","NoStop",0,-0.482663136666833,-0.502755713427766
3,124,341.4,"Left",1,0,1,100,"NoGo","Stop",1,-0.151713736794507,-0.502755713427766
3,125,391.6,"Right",1,1,0,50,"Right","NoStop",0,0.00340913784219453,-0.815594054460505
3,126,330.3000001,"Right",1,1,0,50,"Right","NoStop",0,-0.186013814343414,-0.815594054460505
3,127,452.6999999,"Left",1,1,0,50,"Left","NoStop",0,0.192214070606939,-0.815594054460505
3,128,335,"Right",1,1,0,50,"Right","NoStop",0,-0.171490358262134,-0.815594054460505
3,129,327.1,"Left",1,1,0,50,"Left","NoStop",0,-0.195902125386237,-0.815594054460505
3,130,1449.283,"NoGo",NA,1,0,50,"NoGo","Stop",1,3.27175231342726,-0.815594054460505
3,131,328.7,"Left",1,1,0,100,"Left","NoStop",0,-0.19095797001933,-0.502755713427766
3,132,283.6,"Left",1,1,0,100,"Left","NoStop",0,-0.330321349424016,-0.502755713427766
3,133,1399.487,"NoGo",NA,1,0,100,"NoGo","Stop",1,3.11787783802071,-0.502755713427766
3,134,248.3000001,"Right",1,1,0,150,"Right","NoStop",0,-0.439401776897388,-0.189917372395026
3,135,285.7,"Left",1,1,0,150,"Left","NoStop",0,-0.323832145504951,-0.189917372395026
3,136,267.4000001,"Left",1,1,0,150,"Left","NoStop",0,-0.380380922204938,-0.189917372395026
3,137,370.2,"Right",1,1,0,150,"Right","NoStop",0,-0.0627189401901844,-0.189917372395026
3,138,248.5,"Right",1,0,1,150,"NoGo","Stop",1,-0.438783757785535,-0.189917372395026
3,139,294.5,"Right",1,1,0,100,"Right","NoStop",0,-0.296639290986964,-0.502755713427766
3,140,271.2,"Left",1,1,0,100,"Left","NoStop",0,-0.368638553517544,-0.502755713427766
3,141,351.6999999,"Right",1,1,0,100,"Right","NoStop",0,-0.119885736929054,-0.502755713427766
3,142,1399.534,"NoGo",NA,1,0,100,"NoGo","Stop",1,3.11802307258461,-0.502755713427766
3,143,233.9,"Right",1,1,0,150,"Right","NoStop",0,-0.483899175508559,-0.189917372395026
3,144,362,"Right",1,1,0,150,"Right","NoStop",0,-0.0880577364455818,-0.189917372395026
3,145,263.1,"Left",1,1,0,150,"Left","NoStop",0,-0.39366834006251,-0.189917372395026
3,146,382.1,"Right",1,1,0,150,"Right","NoStop",0,-0.0259467846488147,-0.189917372395026
3,147,319.9,"Left",1,1,0,150,"Left","NoStop",0,-0.218150824537318,-0.189917372395026
3,148,276.8000001,"Right",1,0,1,150,"NoGo","Stop",1,-0.351334009424361,-0.189917372395026
3,149,416.1999999,"Right",1,1,0,100,"Right","NoStop",0,0.0794255262993773,-0.502755713427766
3,150,357.6,"Left",1,1,0,100,"Left","NoStop",0,-0.101654163704576,-0.502755713427766
3,151,295.4000001,"Right",1,1,0,100,"Right","NoStop",0,-0.293858203284069,-0.502755713427766
3,152,1399.34,"NoGo",NA,1,0,100,"NoGo","Stop",1,3.11742359374637,-0.502755713427766
3,153,278,"Right",1,1,0,150,"Right","NoStop",0,-0.34762589320819,-0.189917372395026
3,154,307.5,"Left",1,1,0,150,"Left","NoStop",0,-0.256468028630846,-0.189917372395026
3,155,189.0999999,"Right",1,1,0,150,"Right","NoStop",0,-0.62233552609096,-0.189917372395026
3,156,190.3,"Right",1,0,1,150,"NoGo","Stop",1,-0.618627409256771,-0.189917372395026
3,157,330.1,"Left",1,1,0,100,"Left","NoStop",0,-0.186631834073287,-0.502755713427766
3,158,292.7,"Left",1,1,0,100,"Left","NoStop",0,-0.302201465774734,-0.502755713427766
3,159,282.9,"Left",1,1,0,100,"Left","NoStop",0,-0.332484417397038,-0.502755713427766
3,160,1399.552,"NoGo",NA,1,0,100,"NoGo","Stop",1,3.11807869433249,-0.502755713427766
3,161,1349.103,"NoGo",NA,1,0,150,"NoGo","Stop",1,2.96218638551681,-0.189917372395026
3,162,159.6,"Right",1,1,0,200,"Right","NoStop",0,-0.713493390359295,0.122920968637714
3,163,164.3,"Right",1,0,1,200,"NoGo","Stop",1,-0.698969933969006,0.122920968637714
3,164,1349.367,"NoGo",NA,1,0,150,"NoGo","Stop",1,2.96300217115235,-0.189917372395026
3,165,229.4,"Right",1,1,0,200,"Right","NoStop",0,-0.497804612477985,0.122920968637714
3,166,1299.444,"NoGo",NA,1,0,200,"NoGo","Stop",1,2.80873525341354,0.122920968637714
3,167,177.5,"Right",1,0,1,250,"NoGo","Stop",1,-0.658180652192025,0.435759309670453
3,168,245.8000001,"Left",1,1,0,200,"Left","NoStop",0,-0.44712701965818,0.122920968637714
3,169,243.5,"Left",1,1,0,200,"Left","NoStop",0,-0.454234243307119,0.122920968637714
3,170,259.0999999,"Right",1,1,0,200,"Right","NoStop",0,-0.406028728788787,0.122920968637714
3,171,311.6,"Left",1,1,0,200,"Left","NoStop",0,-0.243798630503147,0.122920968637714
3,172,168.9,"Left",1,1,0,200,"Left","NoStop",0,-0.684755487289149,0.122920968637714
3,173,197.8,"Left",1,1,0,200,"Left","NoStop",0,-0.595451680974395,0.122920968637714
3,174,730,"Left",1,1,0,200,"Left","NoStop",0,1.04909799794299,0.122920968637714
3,175,340.2,"Left",1,1,0,200,"Left","NoStop",0,-0.155421853319687,0.122920968637714
3,176,1299.17,"NoGo",NA,1,0,200,"NoGo","Stop",1,2.80788856680696,0.122920968637714
3,177,176.2,"Left",1,1,0,250,"Left","NoStop",0,-0.662197778427637,0.435759309670453
3,178,133.6,"Left",1,1,0,250,"Left","NoStop",0,-0.793835915071531,0.435759309670453
3,179,178,"Right",1,1,0,250,"Right","NoStop",0,-0.656635603639867,0.435759309670453
3,180,194.6999999,"Left",1,1,0,250,"Left","NoStop",0,-0.605030982306786,0.435759309670453
3,181,169.5,"Left",1,1,0,250,"Left","NoStop",0,-0.682901429026559,0.435759309670453
3,182,118.9000001,"Right",1,0,1,250,"NoGo","Stop",1,-0.839260342195978,0.435759309670453
3,183,205,"Right",1,1,0,200,"Right","NoStop",0,-0.573202981823314,0.122920968637714
3,184,188.1999999,"Left",1,1,0,200,"Left","NoStop",0,-0.625116613484845,0.122920968637714
3,185,175.1999999,"Left",1,1,0,200,"Left","NoStop",0,-0.665287875840963,0.122920968637714
3,186,184,"Right",1,1,0,200,"Right","NoStop",0,-0.638095021013966,0.122920968637714
3,187,167.7,"Right",1,0,1,200,"NoGo","Stop",1,-0.688463603814329,0.122920968637714
3,188,246.1999999,"Left",1,0,1,150,"NoGo","Stop",1,-0.445890981434473,-0.189917372395026
3,189,519,"Left",1,1,0,100,"Left","NoStop",0,0.39708750893215,-0.502755713427766
3,190,1399.773,"NoGo",NA,1,0,100,"NoGo","Stop",1,3.11876160579254,-0.502755713427766
3,191,223.4,"Right",1,1,0,150,"Right","NoStop",0,-0.516345195103886,-0.189917372395026
3,192,1349.713,"NoGo",NA,1,0,150,"NoGo","Stop",1,2.96407134475044,-0.189917372395026
3,193,236.8,"Left",1,1,0,200,"Left","NoStop",0,-0.474937893906041,0.122920968637714
3,194,182.1,"Left",1,0,1,200,"NoGo","Stop",1,-0.643966205512168,0.122920968637714
3,195,325.0999999,"Right",1,1,0,150,"Right","NoStop",0,-0.20208231990388,-0.189917372395026
3,196,1349.748,"NoGo",NA,1,0,150,"NoGo","Stop",1,2.96417949814909,-0.189917372395026
3,197,216.1999999,"Left",1,1,0,200,"Left","NoStop",0,-0.538593894563976,0.122920968637714
3,198,179.9000001,"Left",1,0,1,200,"NoGo","Stop",1,-0.650764418832655,0.122920968637714
3,199,350.4,"Left",1,1,0,150,"Left","NoStop",0,-0.123902862855656,-0.189917372395026
3,200,204,"Left",1,1,0,150,"Left","NoStop",0,-0.576293078927631,-0.189917372395026
3,201,212,"Left",1,0,1,150,"NoGo","Stop",1,-0.551572302093097,-0.189917372395026
3,202,328.5,"Right",1,0,1,100,"NoGo","Stop",1,-0.191575989440193,-0.502755713427766
3,203,382.4,"Left",1,1,0,50,"Left","NoStop",0,-0.0250197555175199,-0.815594054460505
3,204,340.4,"Right",1,1,0,50,"Right","NoStop",0,-0.154803833898824,-0.815594054460505
3,205,1449.672,"NoGo",NA,1,0,50,"NoGo","Stop",1,3.27295436120084,-0.815594054460505
3,206,278.2,"Right",1,1,0,100,"Right","NoStop",0,-0.347007873787327,-0.502755713427766
3,207,344.9,"Right",1,1,0,100,"Right","NoStop",0,-0.140898396929399,-0.502755713427766
3,208,367.5999999,"Right",1,1,0,100,"Right","NoStop",0,-0.0707531929704176,-0.502755713427766
3,209,1399.548,"NoGo",NA,1,0,100,"NoGo","Stop",1,3.11806633394407,-0.502755713427766
3,210,281.4,"Right",1,1,0,150,"Right","NoStop",0,-0.337119563053513,-0.189917372395026
3,211,1349.436,"NoGo",NA,1,0,150,"NoGo","Stop",1,2.96321538785255,-0.189917372395026
3,212,382,"Left",1,1,0,200,"Left","NoStop",0,-0.0262557943592465,0.122920968637714
3,213,177.2,"Right",1,1,0,200,"Right","NoStop",0,-0.65910768132332,0.122920968637714
3,214,304.5,"Left",1,1,0,200,"Left","NoStop",0,-0.265738319943796,0.122920968637714
3,215,200.1,"Right",1,1,0,200,"Right","NoStop",0,-0.588344457634466,0.122920968637714
3,216,197.9,"Left",1,1,0,200,"Left","NoStop",0,-0.595142671263963,0.122920968637714
3,217,155.5,"Left",1,0,1,200,"NoGo","Stop",1,-0.726162788486994,0.122920968637714
3,218,266.2,"Left",1,1,0,150,"Left","NoStop",0,-0.384089039039128,-0.189917372395026
3,219,197.5,"Left",1,1,0,150,"Left","NoStop",0,-0.59637871010569,-0.189917372395026
3,220,276.9,"Right",1,1,0,150,"Right","NoStop",0,-0.351025000022939,-0.189917372395026
3,221,1350.279,"NoGo",NA,1,0,150,"NoGo","Stop",1,2.96582033971149,-0.189917372395026
3,222,249.5,"Left",1,1,0,200,"Left","NoStop",0,-0.435693660681218,0.122920968637714
3,223,160.5,"Left",1,0,1,200,"NoGo","Stop",1,-0.71071230296541,0.122920968637714
3,224,248.5999999,"Left",1,1,0,150,"Left","NoStop",0,-0.438474748384113,-0.189917372395026
3,225,1349.489,"NoGo",NA,1,0,150,"NoGo","Stop",1,2.96337916299908,-0.189917372395026
3,226,375,"Left",1,1,0,200,"Left","NoStop",0,-0.0478864740894639,0.122920968637714
3,227,272.5999999,"Right",1,1,0,200,"Right","NoStop",0,-0.36431241788051,0.122920968637714
3,228,447.5,"Left",1,1,0,200,"Left","NoStop",0,0.176145565973502,0.122920968637714
3,229,1299.546,"NoGo",NA,1,0,200,"NoGo","Stop",1,2.80905044331818,0.122920968637714
3,230,153.3000001,"Left",1,1,0,250,"Left","NoStop",0,-0.732961001807481,0.435759309670453
3,231,322.3000001,"Right",1,1,0,250,"Right","NoStop",0,-0.210734591177948,0.435759309670453
3,232,1249.077,"NoGo",NA,0,1,250,"Right","NoStop",0,2.65309633256042,0.435759309670453
3,233,323.8,"Right",1,1,0,250,"Right","NoStop",0,-0.206099445830482,0.435759309670453
3,234,183.6,"Right",1,0,1,250,"NoGo","Stop",1,-0.639331059855693,0.435759309670453
3,235,215.1,"Left",1,1,0,200,"Left","NoStop",0,-0.541993001069715,0.122920968637714
3,236,258.0999999,"Left",1,0,1,200,"NoGo","Stop",1,-0.409118825893103,0.122920968637714
3,237,355.7,"Right",1,1,0,150,"Right","NoStop",0,-0.107525348202777,-0.189917372395026
3,238,1349.095,"NoGo",NA,0,1,150,"Left","NoStop",0,2.96216166473998,-0.189917372395026
3,239,277.4,"Left",1,1,0,150,"Left","NoStop",0,-0.34947995147078,-0.189917372395026
3,240,682.4,"Left",1,1,0,150,"Left","NoStop",0,0.90200937577751,-0.189917372395026
4,1,36,"Right",1,1,0,250,"Right","NoStop",0,-1.09542939245285,0.435759309670453
4,2,41.5,"Right",1,0,1,250,"NoGo","Stop",1,-1.07843385837911,0.435759309670453
4,3,137.7,"Left",1,0,1,200,"NoGo","Stop",1,-0.781166516943832,0.122920968637714
4,4,45.5,"Right",1,0,1,150,"Left","NoStop",0,-1.06607346996184,-0.189917372395026
4,5,183.9,"Left",1,0,1,150,"NoGo","Stop",1,-0.638404030724398,-0.189917372395026
4,6,314.2,"Left",1,1,0,100,"Left","NoStop",0,-0.235764378031923,-0.502755713427766
4,7,187,"Left",1,1,0,100,"Left","NoStop",0,-0.628824729701016,-0.502755713427766
4,8,170.1,"Left",1,0,1,100,"NoGo","Stop",1,-0.681047370763969,-0.502755713427766
4,9,281.6,"Right",1,1,0,50,"Right","NoStop",0,-0.33650154363265,-0.815594054460505
4,10,226.3,"Right",1,0,1,50,"Left","NoStop",0,-0.507383913501367,-0.815594054460505
4,11,274.3,"Right",1,1,0,50,"Right","NoStop",0,-0.359059252494162,-0.815594054460505
4,12,194.3,"Left",1,1,0,50,"Left","NoStop",0,-0.606267020839503,-0.815594054460505
4,13,236,"Right",1,1,0,50,"Right","NoStop",0,-0.477409971589494,-0.815594054460505
4,14,217.5,"Left",1,1,0,50,"Left","NoStop",0,-0.534576768019354,-0.815594054460505
4,15,234.6,"Left",1,1,0,50,"Left","NoStop",0,-0.481736107535538,-0.815594054460505
4,16,198.6,"Left",1,0,1,50,"Right","NoStop",0,-0.592979603290941,-0.815594054460505
4,17,285.4,"Right",1,1,0,50,"Right","NoStop",0,-0.324759174636246,-0.815594054460505
4,18,227.7,"Left",1,1,0,50,"Left","NoStop",0,-0.503057777555323,-0.815594054460505
4,19,233.6,"Right",1,1,0,50,"Right","NoStop",0,-0.484826204639855,-0.815594054460505
4,20,347.9,"Right",1,1,0,50,"Right","NoStop",0,-0.131628105616448,-0.815594054460505
4,21,230.3,"Left",1,0,1,50,"NoGo","Stop",1,-0.4950235250841,-0.815594054460505
4,22,253.5,"Right",1,0,1,50,"NoGo","Stop",1,-0.423333272263951,-0.815594054460505
4,23,269.1,"Left",1,1,0,50,"Left","NoStop",0,-0.375127757436609,-0.815594054460505
4,24,216.3,"Right",1,1,0,50,"Right","NoStop",0,-0.538284884544535,-0.815594054460505
4,25,179,"Left",1,1,0,50,"Left","NoStop",0,-0.65354550653555,-0.815594054460505
4,26,339.6,"Left",1,1,0,50,"Left","NoStop",0,-0.157275911582277,-0.815594054460505
4,27,228.5,"Left",1,1,0,50,"Left","NoStop",0,-0.50058569987187,-0.815594054460505
4,28,467.6,"Right",1,0,1,50,"NoGo","Stop",1,0.238256517770269,-0.815594054460505
4,29,971.6,"Right",1,0,1,50,"NoGo","Stop",1,1.79566545834592,-0.815594054460505
4,30,370.3,"Right",1,1,0,50,"Right","NoStop",0,-0.0624099304797526,-0.815594054460505
4,31,804.6,"Right",1,0,1,50,"NoGo","Stop",1,1.27961924192502,-0.815594054460505
4,32,392.5,"Right",1,1,0,50,"Right","NoStop",0,0.00619022523607955,-0.815594054460505
4,33,359,"Left",1,1,0,50,"Left","NoStop",0,-0.0973280277585321,-0.815594054460505
4,34,309,"Left",1,1,0,50,"Left","NoStop",0,-0.25183288297437,-0.815594054460505
4,35,761.7,"Left",1,0,1,50,"NoGo","Stop",1,1.14705407614983,-0.815594054460505
4,36,242.9,"Right",1,1,0,50,"Right","NoStop",0,-0.456088301569709,-0.815594054460505
4,37,281.9,"Right",1,1,0,50,"Right","NoStop",0,-0.335574514501355,-0.815594054460505
4,38,246.4,"Right",1,1,0,50,"Right","NoStop",0,-0.4452729617046,-0.815594054460505
4,39,192.5,"Right",1,0,1,50,"Left","NoStop",0,-0.611829195627274,-0.815594054460505
4,40,349.6,"Left",1,1,0,50,"Left","NoStop",0,-0.12637494053911,-0.815594054460505
4,41,488.3,"Left",1,0,1,50,"NoGo","Stop",1,0.302221527829626,-0.815594054460505
4,42,766.4,"Left",1,1,0,50,"Left","NoStop",0,1.16157753254012,-0.815594054460505
4,43,299.3,"Right",1,1,0,50,"Right","NoStop",0,-0.281806824886243,-0.815594054460505
4,44,263.9,"Right",1,1,0,50,"Right","NoStop",0,-0.391196262379057,-0.815594054460505
4,45,196,"Right",1,0,1,50,"Left","NoStop",0,-0.601013855762165,-0.815594054460505
4,46,847.4,"Left",1,0,1,50,"NoGo","Stop",1,1.41187539798978,-0.815594054460505
4,47,300.8,"Right",1,1,0,50,"Right","NoStop",0,-0.277171679229768,-0.815594054460505
4,48,606.3,"Left",1,1,0,50,"Left","NoStop",0,0.666852986139004,-0.815594054460505
4,49,302.9,"Left",1,1,0,50,"Left","NoStop",0,-0.270682475310703,-0.815594054460505
4,50,506.6,"Right",1,1,0,50,"Right","NoStop",0,0.358770304838623,-0.815594054460505
4,51,297.3,"Left",1,1,0,50,"Left","NoStop",0,-0.287987019094877,-0.815594054460505
4,52,287.5,"Right",1,0,1,50,"NoGo","Stop",1,-0.318269970717181,-0.815594054460505
4,53,334.3,"Right",1,1,0,50,"Right","NoStop",0,-0.173653426235156,-0.815594054460505
4,54,274,"Left",1,1,0,50,"Left","NoStop",0,-0.359986281625457,-0.815594054460505
4,55,333,"Left",1,1,0,50,"Left","NoStop",0,-0.177670552470768,-0.815594054460505
4,56,307.4,"Right",1,1,0,50,"Right","NoStop",0,-0.256777038341277,-0.815594054460505
4,57,766.9,"Left",1,0,1,50,"NoGo","Stop",1,1.16312258109228,-0.815594054460505
4,58,325.3,"Left",1,1,0,50,"Left","NoStop",0,-0.201464300174007,-0.815594054460505
4,59,285.6,"Left",1,1,0,50,"Left","NoStop",0,-0.324141155215383,-0.815594054460505
4,60,297.8,"Right",1,1,0,50,"Right","NoStop",0,-0.286441970542718,-0.815594054460505
4,61,263,"Right",1,1,0,50,"Right","NoStop",0,-0.393977349772942,-0.815594054460505
4,62,291.9,"Right",1,0,1,50,"NoGo","Stop",1,-0.304673543458187,-0.815594054460505
4,63,261.2,"Right",1,1,0,50,"Right","NoStop",0,-0.399539524560712,-0.815594054460505
4,64,265.4,"Right",1,1,0,50,"Right","NoStop",0,-0.386561116722581,-0.815594054460505
4,65,317.5,"Left",1,1,0,50,"Left","NoStop",0,-0.225567057587678,-0.815594054460505
4,66,255.6,"Left",1,1,0,50,"Left","NoStop",0,-0.416844068344886,-0.815594054460505
4,67,327,"Right",1,1,0,50,"Right","NoStop",0,-0.196211135096669,-0.815594054460505
4,68,736,"Left",1,0,1,50,"NoGo","Stop",1,1.06763858056889,-0.815594054460505
4,69,331,"Left",1,1,0,50,"Left","NoStop",0,-0.183850746679402,-0.815594054460505
4,70,333,"Left",1,1,0,50,"Left","NoStop",0,-0.177670552470768,-0.815594054460505
4,71,318.3,"Right",1,1,0,50,"Right","NoStop",0,-0.223094979904224,-0.815594054460505
4,72,275.9,"Right",1,1,0,50,"Right","NoStop",0,-0.354115097127255,-0.815594054460505
4,73,311,"Left",1,0,1,50,"NoGo","Stop",1,-0.245652688765737,-0.815594054460505
4,74,327.9,"Left",1,1,0,50,"Left","NoStop",0,-0.193430047702784,-0.815594054460505
4,75,726.4,"Right",1,0,1,50,"NoGo","Stop",1,1.03797364836745,-0.815594054460505
4,76,374.3,"Left",1,1,0,50,"Left","NoStop",0,-0.0500495420624856,-0.815594054460505
4,77,283.2,"Left",1,1,0,50,"Left","NoStop",0,-0.331557388265743,-0.815594054460505
4,78,729.4,"Left",1,0,1,50,"NoGo","Stop",1,1.0472439396804,-0.815594054460505
4,79,228.1,"Right",1,0,1,50,"Left","NoStop",0,-0.501821738713597,-0.815594054460505
4,80,306,"Right",1,1,0,50,"Right","NoStop",0,-0.261103174287321,-0.815594054460505
4,81,299.8,"Left",1,1,0,50,"Left","NoStop",0,-0.280261776334085,-0.815594054460505
4,82,766.5,"Right",1,0,1,50,"NoGo","Stop",1,1.16188654225055,-0.815594054460505
4,83,234,"Left",1,0,1,50,"NoGo","Stop",1,-0.483590165798128,-0.815594054460505
4,84,315.5,"Right",1,1,0,50,"Right","NoStop",0,-0.231747251796311,-0.815594054460505
4,85,751.7,"Left",1,0,1,50,"NoGo","Stop",1,1.11615310510666,-0.815594054460505
4,86,247.8,"Right",1,1,0,50,"Right","NoStop",0,-0.440946825758556,-0.815594054460505
4,87,304,"Right",1,0,1,50,"NoGo","Stop",1,-0.267283368495954,-0.815594054460505
4,88,451.1,"Right",1,1,0,50,"Right","NoStop",0,0.187269915549042,-0.815594054460505
4,89,843.7,"Right",1,0,1,50,"NoGo","Stop",1,1.4004420387038,-0.815594054460505
4,90,331.5,"Left",1,1,0,50,"Left","NoStop",0,-0.182305698127243,-0.815594054460505
4,91,366.2,"Right",1,1,0,50,"Right","NoStop",0,-0.0750793286074514,-0.815594054460505
4,92,359,"Right",1,1,0,50,"Right","NoStop",0,-0.0973280277585321,-0.815594054460505
4,93,344,"Left",1,0,1,50,"NoGo","Stop",1,-0.143679484323284,-0.815594054460505
4,94,288.8,"Right",1,1,0,50,"Right","NoStop",0,-0.314252844481569,-0.815594054460505
4,95,741,"Left",1,0,1,50,"NoGo","Stop",1,1.08308906609047,-0.815594054460505
4,96,846.2,"Left",1,0,1,50,"NoGo","Stop",1,1.4081672814646,-0.815594054460505
4,97,272.1,"Right",1,1,0,50,"Right","NoStop",0,-0.365857466123659,-0.815594054460505
4,98,225.5,"Right",1,1,0,50,"Right","NoStop",0,-0.50985599118482,-0.815594054460505
4,99,736.5,"Right",1,0,1,50,"NoGo","Stop",1,1.06918362912105,-0.815594054460505
4,100,620,"Right",1,1,0,50,"Right","NoStop",0,0.709187316468144,-0.815594054460505
4,101,281.9,"Right",1,1,0,50,"Right","NoStop",0,-0.335574514501355,-0.815594054460505
4,102,353.1,"Left",1,0,1,50,"NoGo","Stop",1,-0.115559600674001,-0.815594054460505
4,103,356.2,"Right",1,0,1,50,"NoGo","Stop",1,-0.105980299650619,-0.815594054460505
4,104,829.8,"Left",1,0,1,50,"NoGo","Stop",1,1.3574896889538,-0.815594054460505
4,105,426.3,"Right",1,1,0,50,"Right","NoStop",0,0.110635507361986,-0.815594054460505
4,106,712.6,"Right",1,0,1,50,"NoGo","Stop",1,0.995330308327876,-0.815594054460505
4,107,315.7,"Left",1,0,1,50,"NoGo","Stop",1,-0.231129232375448,-0.815594054460505
4,108,373.4,"Right",1,1,0,50,"Right","NoStop",0,-0.0528306294563708,-0.815594054460505
4,109,724.6,"Left",1,0,1,50,"NoGo","Stop",1,1.03241147357968,-0.815594054460505
4,110,381.8,"Right",1,1,0,50,"Right","NoStop",0,-0.0268738137801098,-0.815594054460505
4,111,716.3,"Right",1,0,1,50,"NoGo","Stop",1,1.00676366761385,-0.815594054460505
4,112,458.1,"Left",1,1,0,50,"Left","NoStop",0,0.208900595279259,-0.815594054460505
4,113,350.8,"Left",1,0,1,50,"NoGo","Stop",1,-0.12266682401393,-0.815594054460505
4,114,406.5,"Right",1,1,0,50,"Right","NoStop",0,0.0494515846965143,-0.815594054460505
4,115,316.2,"Right",1,1,0,50,"Right","NoStop",0,-0.22958418382329,-0.815594054460505
4,116,505.9,"Left",1,1,0,50,"Left","NoStop",0,0.356607236865601,-0.815594054460505
4,117,285.2,"Left",1,0,1,50,"NoGo","Stop",1,-0.325377194057109,-0.815594054460505
4,118,312,"Right",1,1,0,50,"Right","NoStop",0,-0.24256259166142,-0.815594054460505
4,119,485.3,"Left",1,1,0,50,"Left","NoStop",0,0.292951236516675,-0.815594054460505
4,120,257.7,"Right",1,1,0,50,"Right","NoStop",0,-0.410354864425821,-0.815594054460505
4,121,333.6,"Left",1,1,0,50,"Left","NoStop",0,-0.175816494208178,-0.815594054460505
4,122,253.8,"Right",1,1,0,50,"Right","NoStop",0,-0.422406243132656,-0.815594054460505
4,123,229.4,"Left",1,1,0,50,"Left","NoStop",0,-0.497804612477985,-0.815594054460505
4,124,265.2,"Left",1,1,0,50,"Left","NoStop",0,-0.387179136143445,-0.815594054460505
4,125,264.5,"Right",1,1,0,50,"Right","NoStop",0,-0.389342204116466,-0.815594054460505
4,126,242.8,"Left",1,1,0,50,"Left","NoStop",0,-0.45639731128014,-0.815594054460505
4,127,342.1,"Left",1,1,0,50,"Left","NoStop",0,-0.149550668821485,-0.815594054460505
4,128,293.5,"Right",1,1,0,50,"Right","NoStop",0,-0.29972938809128,-0.815594054460505
4,129,342.5,"Right",1,1,0,50,"Right","NoStop",0,-0.148314629979759,-0.815594054460505
4,130,317.6,"Right",1,1,0,50,"Right","NoStop",0,-0.225258047877246,-0.815594054460505
4,131,313.2,"Right",1,0,1,50,"NoGo","Stop",1,-0.23885447513624,-0.815594054460505
4,132,319.6,"Left",1,1,0,50,"Left","NoStop",0,-0.219077853668613,-0.815594054460505
4,133,340.4,"Left",1,1,0,50,"Left","NoStop",0,-0.154803833898824,-0.815594054460505
4,134,258.4,"Left",1,1,0,50,"Left","NoStop",0,-0.408191796452799,-0.815594054460505
4,135,333,"Right",1,1,0,50,"Right","NoStop",0,-0.177670552470768,-0.815594054460505
4,136,314.4,"Right",1,0,1,50,"NoGo","Stop",1,-0.23514635861106,-0.815594054460505
4,137,293,"Right",1,1,0,50,"Right","NoStop",0,-0.301274436643439,-0.815594054460505
4,138,272.9,"Right",1,1,0,50,"Right","NoStop",0,-0.363385388440206,-0.815594054460505
4,139,356.1,"Left",1,1,0,50,"Left","NoStop",0,-0.106289309361051,-0.815594054460505
4,140,298.6,"Right",1,1,0,50,"Right","NoStop",0,-0.283969892859265,-0.815594054460505
4,141,308.3,"Right",1,1,0,50,"Right","NoStop",0,-0.253995950947392,-0.815594054460505
4,142,228.5,"Left",1,0,1,50,"NoGo","Stop",1,-0.50058569987187,-0.815594054460505
4,143,310.5,"Left",1,1,0,50,"Left","NoStop",0,-0.247197737317895,-0.815594054460505
4,144,314.1,"Right",1,1,0,50,"Right","NoStop",0,-0.236073387742355,-0.815594054460505
4,145,272.7,"Left",1,1,0,50,"Left","NoStop",0,-0.364003407861069,-0.815594054460505
4,146,298.8,"Left",1,1,0,50,"Left","NoStop",0,-0.283351873438401,-0.815594054460505
4,147,263.9,"Left",1,1,0,50,"Left","NoStop",0,-0.391196262379057,-0.815594054460505
4,148,274.1,"Right",1,1,0,50,"Right","NoStop",0,-0.359677271915025,-0.815594054460505
4,149,303.1,"Right",1,1,0,50,"Right","NoStop",0,-0.270064455889839,-0.815594054460505
4,150,263.4,"Right",1,0,1,50,"NoGo","Stop",1,-0.392741310931215,-0.815594054460505
4,151,249.2,"Left",1,1,0,50,"Left","NoStop",0,-0.436620689812513,-0.815594054460505
4,152,725.9,"Right",1,0,1,50,"NoGo","Stop",1,1.03642859981529,-0.815594054460505
4,153,336.2,"Left",1,1,0,50,"Left","NoStop",0,-0.167782241736954,-0.815594054460505
4,154,274.6,"Left",1,1,0,50,"Left","NoStop",0,-0.358132223362867,-0.815594054460505
4,155,520,"Right",1,1,0,50,"Right","NoStop",0,0.400177606036467,-0.815594054460505
4,156,311.9,"Right",1,1,0,50,"Right","NoStop",0,-0.242871601371852,-0.815594054460505
4,157,710.7,"Right",1,0,1,50,"NoGo","Stop",1,0.989459123829675,-0.815594054460505
4,158,290.5,"Left",1,0,1,50,"NoGo","Stop",1,-0.308999679404231,-0.815594054460505
4,159,726.7,"Left",1,0,1,50,"NoGo","Stop",1,1.03890067749874,-0.815594054460505
4,160,302.3,"Right",1,1,0,50,"Right","NoStop",0,-0.272536533573293,-0.815594054460505
4,161,858.1,"Left",1,0,1,50,"NoGo","Stop",1,1.44493943700597,-0.815594054460505
4,162,357.2,"Right",1,1,0,50,"Right","NoStop",0,-0.102890202546302,-0.815594054460505
4,163,266.4,"Left",1,1,0,50,"Left","NoStop",0,-0.383471019618265,-0.815594054460505
4,164,351.2,"Left",1,1,0,50,"Left","NoStop",0,-0.121430785172203,-0.815594054460505
4,165,349.1,"Left",1,1,0,50,"Left","NoStop",0,-0.127919989091268,-0.815594054460505
4,166,295.2,"Left",1,1,0,50,"Left","NoStop",0,-0.294476223013942,-0.815594054460505
4,167,312,"Left",1,1,0,50,"Left","NoStop",0,-0.24256259166142,-0.815594054460505
4,168,255.6,"Left",1,1,0,50,"Left","NoStop",0,-0.416844068344886,-0.815594054460505
4,169,359.5,"Right",1,1,0,50,"Right","NoStop",0,-0.0957829792063737,-0.815594054460505
4,170,437.8,"Left",1,1,0,50,"Left","NoStop",0,0.146171624061629,-0.815594054460505
4,171,413.7,"Left",1,1,0,50,"Left","NoStop",0,0.0717002838475949,-0.815594054460505
4,172,301,"Right",1,1,0,50,"Right","NoStop",0,-0.276553659808905,-0.815594054460505
4,173,247,"Left",1,1,0,50,"Left","NoStop",0,-0.44341890344201,-0.815594054460505
4,174,358.1,"Right",1,1,0,50,"Right","NoStop",0,-0.100109115152417,-0.815594054460505
4,175,304.7,"Left",1,1,0,50,"Left","NoStop",0,-0.265120300522933,-0.815594054460505
4,176,278.9,"Right",1,1,0,50,"Right","NoStop",0,-0.344844805814305,-0.815594054460505
4,177,342.7,"Right",1,1,0,50,"Right","NoStop",0,-0.147696610558895,-0.815594054460505
4,178,250.3,"Left",1,1,0,50,"Left","NoStop",0,-0.433221582997765,-0.815594054460505
4,179,330,"Right",1,0,1,50,"NoGo","Stop",1,-0.186940843783718,-0.815594054460505
4,180,288.7,"Left",1,1,0,50,"Left","NoStop",0,-0.314561854192001,-0.815594054460505
4,181,355.4,"Right",1,1,0,50,"Right","NoStop",0,-0.108452377334073,-0.815594054460505
4,182,265.9,"Left",1,1,0,50,"Left","NoStop",0,-0.385016068170423,-0.815594054460505
4,183,254.2,"Right",1,0,1,50,"NoGo","Stop",1,-0.421170204290929,-0.815594054460505
4,184,255.1,"Left",1,1,0,50,"Left","NoStop",0,-0.418389116897044,-0.815594054460505
4,185,268.4,"Left",1,1,0,50,"Left","NoStop",0,-0.377290825409631,-0.815594054460505
4,186,724.4,"Right",1,0,1,50,"NoGo","Stop",1,1.03179345415881,-0.815594054460505
4,187,321.8,"Right",1,1,0,50,"Right","NoStop",0,-0.212279640039116,-0.815594054460505
4,188,297.5,"Left",1,1,0,50,"Left","NoStop",0,-0.287368999674013,-0.815594054460505
4,189,277.2,"Left",1,1,0,50,"Left","NoStop",0,-0.350097970891644,-0.815594054460505
4,190,709,"Right",1,0,1,50,"NoGo","Stop",1,0.984205958752336,-0.815594054460505
4,191,322.3,"Right",1,1,0,50,"Right","NoStop",0,-0.210734591486957,-0.815594054460505
4,192,333.6,"Right",1,0,1,50,"NoGo","Stop",1,-0.175816494208178,-0.815594054460505
4,193,424.5,"Right",1,1,0,50,"Right","NoStop",0,0.105073332574216,-0.815594054460505
4,194,298.5,"Right",1,1,0,50,"Right","NoStop",0,-0.284278902569696,-0.815594054460505
4,195,347,"Left",1,1,0,50,"Left","NoStop",0,-0.134409193010333,-0.815594054460505
4,196,274.8,"Left",1,1,0,50,"Left","NoStop",0,-0.357514203942004,-0.815594054460505
4,197,280.5,"Left",1,1,0,50,"Left","NoStop",0,-0.339900650447398,-0.815594054460505
4,198,297.8,"Right",1,1,0,50,"Right","NoStop",0,-0.286441970542718,-0.815594054460505
4,199,261.6,"Left",1,0,1,50,"NoGo","Stop",1,-0.398303485718985,-0.815594054460505
4,200,264.8,"Right",1,1,0,50,"Right","NoStop",0,-0.388415174985171,-0.815594054460505
4,201,729.9,"Right",1,0,1,50,"NoGo","Stop",1,1.04878898823256,-0.815594054460505
4,202,254.4,"Left",1,1,0,50,"Left","NoStop",0,-0.420552184870066,-0.815594054460505
4,203,266.7,"Right",1,1,0,50,"Right","NoStop",0,-0.38254399048697,-0.815594054460505
4,204,630.1,"Left",1,0,1,50,"NoGo","Stop",1,0.740397297221743,-0.815594054460505
4,205,255.2,"Right",1,1,0,50,"Right","NoStop",0,-0.418080107186612,-0.815594054460505
4,206,358,"Right",1,1,0,50,"Right","NoStop",0,-0.100418124862849,-0.815594054460505
4,207,481.5,"Left",1,1,0,50,"Left","NoStop",0,0.281208867520272,-0.815594054460505
4,208,230.4,"Right",1,1,0,50,"Right","NoStop",0,-0.494714515373668,-0.815594054460505
4,209,263.3,"Right",1,1,0,50,"Right","NoStop",0,-0.393050320641647,-0.815594054460505
4,210,212.9,"Right",1,1,0,50,"Right","NoStop",0,-0.548791214699212,-0.815594054460505
4,211,269.1,"Right",1,0,1,50,"Left","NoStop",0,-0.375127757436609,-0.815594054460505
4,212,363.7,"Right",1,1,0,50,"Right","NoStop",0,-0.0828045713682433,-0.815594054460505
4,213,727.4,"Right",1,0,1,50,"NoGo","Stop",1,1.04106374547176,-0.815594054460505
4,214,303.3,"Right",1,1,0,50,"Right","NoStop",0,-0.269446436468976,-0.815594054460505
4,215,304.4,"Right",1,1,0,50,"Right","NoStop",0,-0.266047329654228,-0.815594054460505
4,216,278.6,"Left",1,0,1,50,"NoGo","Stop",1,-0.3457718349456,-0.815594054460505
4,217,190.8,"Left",1,1,0,50,"Left","NoStop",0,-0.617082360704612,-0.815594054460505
4,218,240.1,"Left",1,1,0,50,"Left","NoStop",0,-0.464740573461796,-0.815594054460505
4,219,397.7,"Left",1,1,0,50,"Left","NoStop",0,0.0222587301785267,-0.815594054460505
4,220,265.7,"Left",1,1,0,50,"Left","NoStop",0,-0.385634087591286,-0.815594054460505
4,221,387.5,"Right",1,1,0,50,"Right","NoStop",0,-0.00926026028550428,-0.815594054460505
4,222,287.1,"Right",1,0,1,50,"NoGo","Stop",1,-0.319506009558908,-0.815594054460505
4,223,702.3,"Right",1,0,1,50,"NoGo","Stop",1,0.963502308153413,-0.815594054460505
4,224,311.7,"Left",1,1,0,50,"Left","NoStop",0,-0.243489620792715,-0.815594054460505
4,225,332.4,"Left",1,1,0,50,"Left","NoStop",0,-0.179524610733358,-0.815594054460505
4,226,334.5,"Right",1,1,0,50,"Right","NoStop",0,-0.173035406814293,-0.815594054460505
4,227,403.2,"Left",1,1,0,50,"Left","NoStop",0,0.0392542642522689,-0.815594054460505
4,228,278.2,"Right",1,1,0,50,"Right","NoStop",0,-0.347007873787327,-0.815594054460505
4,229,255.2,"Left",1,1,0,50,"Left","NoStop",0,-0.418080107186612,-0.815594054460505
4,230,240.3,"Right",1,1,0,50,"Right","NoStop",0,-0.464122554040932,-0.815594054460505
4,231,253.5,"Left",1,0,1,50,"NoGo","Stop",1,-0.423333272263951,-0.815594054460505
4,232,218.3,"Right",1,1,0,50,"Right","NoStop",0,-0.532104690335901,-0.815594054460505
4,233,334.5,"Left",1,1,0,50,"Left","NoStop",0,-0.173035406814293,-0.815594054460505
4,234,374.6,"Left",1,1,0,50,"Left","NoStop",0,-0.0491225129311905,-0.815594054460505
4,235,275.4,"Left",1,1,0,50,"Left","NoStop",0,-0.355660145679414,-0.815594054460505
4,236,315,"Right",1,1,0,50,"Right","NoStop",0,-0.23329230034847,-0.815594054460505
4,237,291.3,"Left",1,1,0,50,"Left","NoStop",0,-0.306527601720777,-0.815594054460505
4,238,720.7,"Right",1,0,1,50,"NoGo","Stop",1,1.02036009487284,-0.815594054460505
4,239,258.4,"Left",1,1,0,50,"Left","NoStop",0,-0.408191796452799,-0.815594054460505
4,240,284.7,"Right",1,1,0,50,"Right","NoStop",0,-0.326922242609268,-0.815594054460505
16,1,518.9,"Right",1,1,0,250,"Right","NoStop",0,0.396778499221719,0.435759309670453
16,2,85.5,"Left",1,1,0,250,"Left","NoStop",0,-0.942469585789168,0.435759309670453
16,3,167.0999999,"Right",1,0,1,250,"NoGo","Stop",1,-0.690317662385929,0.435759309670453
16,4,287,"Left",1,1,0,200,"Left","NoStop",0,-0.319815019269339,0.122920968637714
16,5,194.8,"Right",1,1,0,200,"Right","NoStop",0,-0.604721972287345,0.122920968637714
16,6,221.1,"Left",1,0,1,200,"NoGo","Stop",1,-0.523452418443814,0.122920968637714
16,7,327.1,"Left",1,1,0,150,"Left","NoStop",0,-0.195902125386237,-0.189917372395026
16,8,258.4,"Left",1,1,0,150,"Left","NoStop",0,-0.408191796452799,-0.189917372395026
16,9,811.8,"Right",1,0,1,150,"NoGo","Stop",1,1.3018679410761,-0.189917372395026
16,10,647.6,"Right",1,1,0,100,"Right","NoStop",0,0.794473996547287,-0.502755713427766
16,11,353.6999999,"Right",1,1,0,100,"Right","NoStop",0,-0.113705542720421,-0.502755713427766
16,12,1302.3,"Right",1,1,0,100,"Right","NoStop",0,2.81756057074347,-0.502755713427766
16,13,278.4000001,"Right",1,1,0,100,"Right","NoStop",0,-0.346389854057454,-0.502755713427766
16,14,1401.444,"NoGo",NA,1,0,100,"NoGo","Stop",1,3.12392515805385,-0.502755713427766
16,15,1351.326,"NoGo",NA,1,0,150,"NoGo","Stop",1,2.96905567137971,-0.189917372395026
16,16,213.8,"Left",1,1,0,200,"Left","NoStop",0,-0.546010127305326,0.122920968637714
16,17,1301.334,"NoGo",NA,1,0,200,"NoGo","Stop",1,2.8145755369407,0.122920968637714
16,18,102.8,"Right",1,1,0,250,"Right","NoStop",0,-0.889010905884488,0.435759309670453
16,19,376.1,"Left",1,1,0,250,"Left","NoStop",0,-0.0444873672747153,0.435759309670453
16,20,463.7,"Right",1,1,0,250,"Right","NoStop",0,0.226205139063433,0.435759309670453
16,21,1251.272,"NoGo",NA,1,0,250,"NoGo","Stop",1,2.6598790957044,0.435759309670453
16,22,255.4000001,"Left",1,1,0,300,"Left","NoStop",0,-0.417462087456739,0.748597650703193
16,23,1201.083,"NoGo",NA,1,0,300,"NoGo","Stop",1,2.50479021213584,0.748597650703193
16,24,180.4,"Right",1,1,0,350,"Right","NoStop",0,-0.649219370589507,1.06143599173593
16,25,541,"Right",1,1,0,350,"Right","NoStop",0,0.465069645227119,1.06143599173593
16,26,305.7,"Right",1,1,0,350,"Right","NoStop",0,-0.262030203418616,1.06143599173593
16,27,177,"Left",1,0,1,350,"NoGo","Stop",1,-0.659725700744183,1.06143599173593
16,28,340.8,"Right",1,1,0,300,"Right","NoStop",0,-0.153567795057097,0.748597650703193
16,29,387.3,"Right",1,1,0,300,"Right","NoStop",0,-0.0098782797063676,0.748597650703193
16,30,259.6999999,"Right",1,1,0,300,"Right","NoStop",0,-0.404174670526197,0.748597650703193
16,31,1201.228,"NoGo",NA,1,0,300,"NoGo","Stop",1,2.50523827621597,0.748597650703193
16,32,129.5999999,"Right",1,1,0,350,"Right","NoStop",0,-0.806196303797808,1.06143599173593
16,33,1151.172,"NoGo",NA,1,0,350,"NoGo","Stop",1,2.35056037556229,1.06143599173593
16,34,2.299999952,"Right",1,1,0,400,"Right","NoStop",0,-1.19956566501665,1.37427433276867
16,35,391.8,"Left",1,1,0,400,"Left","NoStop",0,0.00402715726305785,1.37427433276867
16,36,180.6,"Right",1,0,1,400,"NoGo","Stop",1,-0.648601351168643,1.37427433276867
16,37,561.4,"Left",1,1,0,350,"Left","NoStop",0,0.528107626155181,1.06143599173593
16,38,395.6,"Left",1,1,0,350,"Left","NoStop",0,0.0157695262594616,1.06143599173593
16,39,244.6,"Left",1,1,0,350,"Left","NoStop",0,-0.45083513649237,1.06143599173593
16,40,247.9,"Right",1,0,1,350,"NoGo","Stop",1,-0.440637816048125,1.06143599173593
16,41,1201.315,"NoGo",NA,1,0,300,"NoGo","Stop",1,2.50550711466404,0.748597650703193
16,42,114.1999999,"Right",1,0,1,350,"NoGo","Stop",1,-0.853783799204286,1.06143599173593
16,43,547.1999999,"Left",1,1,0,300,"Left","NoStop",0,0.484228246964873,0.748597650703193
16,44,536.4,"Left",1,1,0,300,"Left","NoStop",0,0.450855198547262,0.748597650703193
16,45,483.0999999,"Left",1,1,0,300,"Left","NoStop",0,0.286153022578169,0.748597650703193
16,46,472,"Left",1,1,0,300,"Left","NoStop",0,0.251852945029262,0.748597650703193
16,47,229.5,"Right",1,0,1,300,"NoGo","Stop",1,-0.497495602767553,0.748597650703193
16,48,1251.288,"NoGo",NA,1,0,250,"NoGo","Stop",1,2.65992853725807,0.435759309670453
16,49,370.8000001,"Left",1,1,0,300,"Left","NoStop",0,-0.0608648816185846,0.748597650703193
16,50,390.1,"Left",1,1,0,300,"Left","NoStop",0,-0.00122600781428062,0.748597650703193
16,51,415.4,"Right",1,1,0,300,"Right","NoStop",0,0.0769534489249334,0.748597650703193
16,52,911.5,"Right",1,1,0,300,"Right","NoStop",0,1.60995062237648,0.748597650703193
16,53,413.7,"Left",1,1,0,300,"Left","NoStop",0,0.0717002838475949,0.748597650703193
16,54,380.9,"Left",1,1,0,300,"Left","NoStop",0,-0.029654901173995,0.748597650703193
16,55,538.2,"Left",1,1,0,300,"Left","NoStop",0,0.456417373335032,0.748597650703193
16,56,80.5,"Right",1,0,1,300,"NoGo","Stop",1,-0.957920071310751,0.748597650703193
16,57,1251.237,"NoGo",NA,1,0,250,"NoGo","Stop",1,2.65977094230575,0.435759309670453
16,58,916.4,"Right",1,1,0,300,"Right","NoStop",0,1.62509209818763,0.748597650703193
16,59,1201.324,"NoGo",NA,0,1,300,"Right","NoStop",0,2.50553492553798,0.748597650703193
16,60,102.9,"Right",1,1,0,300,"Right","NoStop",0,-0.888701896174056,0.748597650703193
16,61,811.6,"Right",1,1,0,300,"Right","NoStop",0,1.30124992165524,0.748597650703193
16,62,504.6999999,"Right",1,1,0,300,"Right","NoStop",0,0.352899120031411,0.748597650703193
16,63,216.4,"Right",1,1,0,300,"Right","NoStop",0,-0.537975874834103,0.748597650703193
16,64,147.9,"Left",1,1,0,300,"Left","NoStop",0,-0.749647526479801,0.748597650703193
16,65,147.6999999,"Right",1,1,0,300,"Right","NoStop",0,-0.750265546209674,0.748597650703193
16,66,118.3,"Right",1,1,0,300,"Right","NoStop",0,-0.841114400767578,0.748597650703193
16,67,73.5,"Right",1,1,0,300,"Right","NoStop",0,-0.979550751040969,0.748597650703193
16,68,62.39999998,"Right",1,0,1,300,"NoGo","Stop",1,-1.01385082896069,0.748597650703193
16,69,360.8000001,"Left",1,1,0,250,"Left","NoStop",0,-0.0917658526617523,0.435759309670453
16,70,227.4,"Left",1,1,0,250,"Left","NoStop",0,-0.503984806686618,0.435759309670453
16,71,527.4,"Left",1,1,0,250,"Left","NoStop",0,0.423044324608411,0.435759309670453
16,72,235.9,"Left",1,1,0,250,"Left","NoStop",0,-0.477718981299926,0.435759309670453
16,73,229.9,"Right",1,0,1,250,"NoGo","Stop",1,-0.496259563925827,0.435759309670453
16,74,696,"Right",1,1,0,200,"Right","NoStop",0,0.944034696396218,0.122920968637714
16,75,196,"Left",1,0,1,200,"NoGo","Stop",1,-0.601013855762165,0.122920968637714
16,76,1351.394,"NoGo",NA,1,0,150,"NoGo","Stop",1,2.9692657979828,-0.189917372395026
16,77,1301.401,"NoGo",NA,1,0,200,"NoGo","Stop",1,2.81478257344669,0.122920968637714
16,78,1251.289,"NoGo",NA,1,0,250,"NoGo","Stop",1,2.65993162735517,0.435759309670453
16,79,246.5,"Left",1,1,0,300,"Left","NoStop",0,-0.444963951994168,0.748597650703193
16,80,326.5,"Left",1,1,0,300,"Left","NoStop",0,-0.197756183648827,0.748597650703193
16,81,379.4,"Right",1,1,0,300,"Right","NoStop",0,-0.0342900468304702,0.748597650703193
16,82,416.6999999,"Left",1,1,0,300,"Left","NoStop",0,0.0809705748515356,0.748597650703193
16,83,313.7,"Right",1,1,0,300,"Right","NoStop",0,-0.237309426584082,0.748597650703193
16,84,87.30000007,"Left",1,1,0,300,"Left","NoStop",0,-0.936907410785091,0.748597650703193
16,85,112.9,"Right",1,1,0,300,"Right","NoStop",0,-0.857800925130888,0.748597650703193
16,86,83,"Left",1,0,1,300,"NoGo","Stop",1,-0.95019482854996,0.748597650703193
16,87,1251.238,"NoGo",NA,1,0,250,"NoGo","Stop",1,2.65977403240285,0.435759309670453
16,88,348.5,"Right",1,1,0,300,"Right","NoStop",0,-0.129774047353858,0.748597650703193
16,89,498.2,"Right",1,1,0,300,"Right","NoStop",0,0.332813489162362,0.748597650703193
16,90,336.6,"Right",1,1,0,300,"Right","NoStop",0,-0.166546202895228,0.748597650703193
16,91,117,"Right",1,1,0,300,"Right","NoStop",0,-0.845131527003189,0.748597650703193
16,92,398.4,"Left",1,1,0,300,"Left","NoStop",0,0.0244217981515484,0.748597650703193
16,93,1201.103,"NoGo",NA,1,0,300,"NoGo","Stop",1,2.50485201407793,0.748597650703193
16,94,164.6999999,"Left",1,0,1,350,"NoGo","Stop",1,-0.697733895436289,1.06143599173593
16,95,727.6999999,"Left",1,1,0,300,"Left","NoStop",0,1.04199077429405,0.748597650703193
16,96,501.2,"Left",1,1,0,300,"Left","NoStop",0,0.342083780475312,0.748597650703193
16,97,1201.123,"NoGo",NA,1,0,300,"NoGo","Stop",1,2.50491381602002,0.748597650703193
16,98,128.6,"Right",1,1,0,350,"Right","NoStop",0,-0.809286400593115,1.06143599173593
16,99,353.7,"Right",1,1,0,350,"Right","NoStop",0,-0.113705542411411,1.06143599173593
16,100,132.5,"Right",1,1,0,350,"Right","NoStop",0,-0.79723502188628,1.06143599173593
16,101,328.5,"Right",1,1,0,350,"Right","NoStop",0,-0.191575989440193,1.06143599173593
16,102,95.10000002,"Left",1,1,0,350,"Left","NoStop",0,-0.912804653525925,1.06143599173593
16,103,246.2,"Left",1,0,1,350,"NoGo","Stop",1,-0.445890981125463,1.06143599173593
16,104,317.5,"Right",1,1,0,300,"Right","NoStop",0,-0.225567057587678,0.748597650703193
16,105,560.4,"Left",1,1,0,300,"Left","NoStop",0,0.525017529050864,0.748597650703193
16,106,501.0999999,"Left",1,1,0,300,"Left","NoStop",0,0.341774770455871,0.748597650703193
16,107,626.3000001,"Left",1,1,0,300,"Left","NoStop",0,0.728654928534349,0.748597650703193
16,108,432.4,"Right",1,1,0,300,"Right","NoStop",0,0.129485099698318,0.748597650703193
16,109,1201.197,"NoGo",NA,1,0,300,"NoGo","Stop",1,2.50514248320573,0.748597650703193
16,110,224.3,"Right",1,1,0,350,"Right","NoStop",0,-0.51356410771,1.06143599173593
16,111,178.5,"Left",1,1,0,350,"Left","NoStop",0,-0.655090555087708,1.06143599173593
16,112,331.6999999,"Right",1,1,0,350,"Right","NoStop",0,-0.181687679015389,1.06143599173593
16,113,210.3000001,"Left",1,0,1,350,"NoGo","Stop",1,-0.556825466861425,1.06143599173593
16,114,397.1,"Right",1,1,0,300,"Right","NoStop",0,0.0204046719159367,0.748597650703193
16,115,261,"Left",1,1,0,300,"Left","NoStop",0,-0.400157543981575,0.748597650703193
16,116,679.8,"Left",1,1,0,300,"Left","NoStop",0,0.893975123306286,0.748597650703193
16,117,446.5,"Left",1,1,0,300,"Left","NoStop",0,0.173055468869185,0.748597650703193
16,118,259.2,"Right",1,1,0,300,"Right","NoStop",0,-0.405719718769345,0.748597650703193
16,119,235,"Right",1,1,0,300,"Right","NoStop",0,-0.480500068693811,0.748597650703193
16,120,265.5,"Left",1,1,0,300,"Left","NoStop",0,-0.38625210701215,0.748597650703193
16,121,331.3,"Right",1,1,0,300,"Right","NoStop",0,-0.182923717548106,0.748597650703193
16,122,265.1,"Right",1,1,0,300,"Right","NoStop",0,-0.387488145853876,0.748597650703193
16,123,1201.105,"NoGo",NA,1,0,300,"NoGo","Stop",1,2.50485819427214,0.748597650703193
16,124,123.1,"Left",1,1,0,350,"Left","NoStop",0,-0.826281934666857,1.06143599173593
16,125,381.1,"Right",1,1,0,350,"Right","NoStop",0,-0.0290368817531315,1.06143599173593
16,126,181.4,"Left",1,1,0,350,"Left","NoStop",0,-0.64612927348519,1.06143599173593
16,127,80.79999995,"Right",1,1,0,350,"Right","NoStop",0,-0.956993042333961,1.06143599173593
16,128,290.5,"Left",1,1,0,350,"Left","NoStop",0,-0.308999679404231,1.06143599173593
16,129,824.2,"Left",1,1,0,350,"Left","NoStop",0,1.34018514516963,1.06143599173593
16,130,85.70000005,"Left",1,1,0,350,"Left","NoStop",0,-0.941851566213799,1.06143599173593
16,131,114.3,"Left",1,0,1,350,"NoGo","Stop",1,-0.853474789184845,1.06143599173593
16,132,192.9000001,"Right",1,0,1,300,"NoGo","Stop",1,-0.610593156476537,0.748597650703193
16,133,419.6,"Right",1,1,0,250,"Right","NoStop",0,0.089931856763064,0.435759309670453
16,134,315.8,"Left",1,1,0,250,"Left","NoStop",0,-0.230820222665016,0.435759309670453
16,135,428.5,"Right",1,1,0,250,"Right","NoStop",0,0.117433720991483,0.435759309670453
16,136,1251.316,"NoGo",NA,1,0,250,"NoGo","Stop",1,2.66001505997699,0.435759309670453
16,137,353.1999999,"Left",1,1,0,300,"Left","NoStop",0,-0.115250591272579,0.748597650703193
16,138,414.3,"Right",1,1,0,300,"Right","NoStop",0,0.0735543421101851,0.748597650703193
16,139,1201.204,"NoGo",NA,1,0,300,"NoGo","Stop",1,2.50516411388547,0.748597650703193
16,140,266,"Left",1,1,0,350,"Left","NoStop",0,-0.384707058459991,1.06143599173593
16,141,1151.239,"NoGo",NA,1,0,350,"NoGo","Stop",1,2.35076741206828,1.06143599173593
16,142,1100.943,"NoGo",NA,1,0,400,"NoGo","Stop",1,2.19534788810956,1.37427433276867
16,143,165.5,"Right",1,1,0,450,"Right","NoStop",0,-0.695261817443826,1.68711267380141
16,144,422.1999999,"Left",1,1,0,450,"Left","NoStop",0,0.0979661089252779,1.68711267380141
16,145,352.2,"Left",1,1,0,450,"Left","NoStop",0,-0.118340688067886,1.68711267380141
16,146,306.6999999,"Left",1,1,0,450,"Left","NoStop",0,-0.258940106623309,1.68711267380141
16,147,357.2,"Left",1,1,0,450,"Left","NoStop",0,-0.102890202546302,1.68711267380141
16,148,267.4,"Right",1,1,0,450,"Right","NoStop",0,-0.380380922513948,1.68711267380141
16,149,164.3000001,"Left",1,1,0,450,"Left","NoStop",0,-0.698969933659997,1.68711267380141
16,150,27.5,"Left",1,0,1,450,"NoGo","Stop",1,-1.12169521783954,1.68711267380141
16,151,230.2,"Left",1,1,0,400,"Left","NoStop",0,-0.495332534794532,1.37427433276867
16,152,189.8,"Left",1,1,0,400,"Left","NoStop",0,-0.620172457808929,1.37427433276867
16,153,315.6,"Left",1,1,0,400,"Left","NoStop",0,-0.23143824208588,1.37427433276867
16,154,305.7,"Right",1,1,0,400,"Right","NoStop",0,-0.262030203418616,1.37427433276867
16,155,247.5,"Left",1,1,0,400,"Left","NoStop",0,-0.441873854889851,1.37427433276867
16,156,199.9,"Left",1,0,1,400,"NoGo","Stop",1,-0.58896247705533,1.37427433276867
16,157,495.6,"Left",1,1,0,350,"Left","NoStop",0,0.324779236691138,1.06143599173593
16,158,61,"Right",1,1,0,350,"Right","NoStop",0,-1.01817696484493,1.06143599173593
16,159,188,"Left",1,0,1,350,"NoGo","Stop",1,-0.625734632596699,1.06143599173593
16,160,212.9,"Left",1,1,0,300,"Left","NoStop",0,-0.548791214699212,0.748597650703193
16,161,510.3,"Left",1,1,0,300,"Left","NoStop",0,0.370203664124595,0.748597650703193
16,162,362.1999999,"Right",1,1,0,300,"Right","NoStop",0,-0.0874397173337281,0.748597650703193
16,163,256.5,"Right",1,1,0,300,"Right","NoStop",0,-0.414062980951001,0.748597650703193
16,164,384.5,"Left",1,1,0,300,"Left","NoStop",0,-0.0185305515984546,0.748597650703193
16,165,240.1,"Left",1,1,0,300,"Left","NoStop",0,-0.464740573461796,0.748597650703193
16,166,110.5,"Left",1,1,0,300,"Left","NoStop",0,-0.865217158181248,0.748597650703193
16,167,128.9,"Left",1,1,0,300,"Left","NoStop",0,-0.80835937146182,0.748597650703193
16,168,231.6,"Right",1,1,0,300,"Right","NoStop",0,-0.491006398848488,0.748597650703193
16,169,78.79999995,"Left",1,0,1,300,"Right","NoStop",0,-0.963173236542595,0.748597650703193
16,170,200.2,"Right",1,1,0,300,"Right","NoStop",0,-0.588035447924035,0.748597650703193
16,171,178.6,"Right",1,1,0,300,"Right","NoStop",0,-0.654781545377277,0.748597650703193
16,172,248.3000001,"Right",1,1,0,300,"Right","NoStop",0,-0.439401776897388,0.748597650703193
16,173,148.6,"Left",1,1,0,300,"Left","NoStop",0,-0.74748445850678,0.748597650703193
16,174,98.39999998,"Right",1,1,0,300,"Right","NoStop",0,-0.902607333205283,0.748597650703193
16,175,70.89999998,"Right",1,1,0,300,"Right","NoStop",0,-0.987585003573994,0.748597650703193
16,176,43.89999998,"Left",1,1,0,300,"Left","NoStop",0,-1.07101762539055,0.748597650703193
16,177,49.10000002,"Right",1,0,1,300,"NoGo","Stop",1,-1.0549491203245,0.748597650703193
16,178,553.6,"Left",1,1,0,250,"Left","NoStop",0,0.504004868741511,0.435759309670453
16,179,204.5,"Left",1,1,0,250,"Left","NoStop",0,-0.574748030375472,0.435759309670453
16,180,190.2,"Right",1,1,0,250,"Right","NoStop",0,-0.618936418967202,0.435759309670453
16,181,614.5999999,"Right",1,1,0,250,"Right","NoStop",0,0.692500791795823,0.435759309670453
16,182,1251.31,"NoGo",NA,1,0,250,"NoGo","Stop",1,2.65999651939436,0.435759309670453
16,183,489.0999999,"Left",1,1,0,300,"Left","NoStop",0,0.304693605204069,0.748597650703193
16,184,360.3000001,"Right",1,1,0,300,"Right","NoStop",0,-0.0933109012139107,0.748597650703193
16,185,305.9,"Left",1,1,0,300,"Left","NoStop",0,-0.261412183997752,0.748597650703193
16,186,1201.103,"NoGo",NA,1,0,300,"NoGo","Stop",1,2.50485201407793,0.748597650703193
16,187,214.7,"Left",1,0,1,350,"NoGo","Stop",1,-0.543229039911441,1.06143599173593
16,188,182.1999999,"Right",1,1,0,300,"Right","NoStop",0,-0.643657196110746,0.748597650703193
16,189,1201.276,"NoGo",NA,1,0,300,"NoGo","Stop",1,2.50538660087698,0.748597650703193
16,190,217.6999999,"Right",1,1,0,350,"Right","NoStop",0,-0.533958748907501,1.06143599173593
16,191,1151.12,"NoGo",NA,1,0,350,"NoGo","Stop",1,2.35039969051286,1.06143599173593
16,192,306.4,"Right",1,1,0,400,"Right","NoStop",0,-0.259867135445594,1.37427433276867
16,193,371.9,"Right",1,1,0,400,"Right","NoStop",0,-0.0574657751128459,1.37427433276867
16,194,299.1,"Right",1,0,1,400,"NoGo","Stop",1,-0.282424844307106,1.37427433276867
16,195,182.4,"Right",1,1,0,350,"Right","NoStop",0,-0.643039176380873,1.06143599173593
16,196,19.19999993,"Right",1,1,0,350,"Right","NoStop",0,-1.14734302402168,1.06143599173593
16,197,321.5,"Right",1,0,1,350,"NoGo","Stop",1,-0.213206669170411,1.06143599173593
16,198,68.10000002,"Right",1,1,0,300,"Right","NoStop",0,-0.996237275342477,0.748597650703193
16,199,36.80000007,"Right",1,1,0,300,"Right","NoStop",0,-1.09295731455309,0.748597650703193
16,200,17.39999998,"Right",1,1,0,300,"Right","NoStop",0,-1.15290519865494,0.748597650703193
16,201,212.9,"Left",1,1,0,300,"Left","NoStop",0,-0.548791214699212,0.748597650703193
16,202,77.39999998,"Right",1,1,0,300,"Right","NoStop",0,-0.967499372395935,0.748597650703193
16,203,152.1,"Left",1,1,0,300,"Left","NoStop",0,-0.736669118641671,0.748597650703193
16,204,174.2,"Left",1,1,0,300,"Left","NoStop",0,-0.66837797263627,0.748597650703193
16,205,21.80000007,"Right",1,1,0,300,"Right","NoStop",0,-1.13930877111784,0.748597650703193
16,206,229.8,"Left",1,1,0,300,"Left","NoStop",0,-0.496568573636258,0.748597650703193
16,207,228.6,"Left",1,1,0,300,"Left","NoStop",0,-0.500276690161438,0.748597650703193
16,208,132.2,"Left",1,1,0,300,"Left","NoStop",0,-0.798162051017575,0.748597650703193
16,209,168.1,"Left",1,1,0,300,"Left","NoStop",0,-0.687227564972603,0.748597650703193
16,210,99.70000005,"Left",1,1,0,300,"Left","NoStop",0,-0.898590206753365,0.748597650703193
16,211,109.4,"Right",1,1,0,300,"Right","NoStop",0,-0.868616264995997,0.748597650703193
16,212,125.9,"Right",1,1,0,300,"Right","NoStop",0,-0.81762966277477,0.748597650703193
16,213,2.899999976,"Left",1,1,0,300,"Left","NoStop",0,-1.19771160667989,0.748597650703193
16,214,134.1,"Left",1,1,0,300,"Left","NoStop",0,-0.792290866519373,0.748597650703193
16,215,61.5999999,"Left",1,1,0,300,"Left","NoStop",0,-1.01632290689135,0.748597650703193
16,216,155.3,"Right",1,1,0,300,"Right","NoStop",0,-0.726780807907857,0.748597650703193
16,217,101,"Right",1,0,1,300,"NoGo","Stop",1,-0.894573080672258,0.748597650703193
16,218,182.9,"Left",1,0,1,250,"NoGo","Stop",1,-0.641494127828715,0.435759309670453
16,219,459.3,"Right",1,1,0,200,"Right","NoStop",0,0.21260871180444,0.122920968637714
16,220,180.9,"Right",1,1,0,200,"Right","NoStop",0,-0.647674322037348,0.122920968637714
16,221,252.4,"Right",1,1,0,200,"Right","NoStop",0,-0.426732379078699,0.122920968637714
16,222,218.8000001,"Left",1,1,0,200,"Left","NoStop",0,-0.530559641474733,0.122920968637714
16,223,180.4,"Left",1,1,0,200,"Left","NoStop",0,-0.649219370589507,0.122920968637714
16,224,151.5,"Left",1,0,1,200,"NoGo","Stop",1,-0.738523176904261,0.122920968637714
16,225,1351.241,"NoGo",NA,1,0,150,"NoGo","Stop",1,2.96879301312584,-0.189917372395026
16,226,178.9,"Right",1,1,0,200,"Right","NoStop",0,-0.653854516245982,0.122920968637714
16,227,375.1,"Right",1,0,1,200,"NoGo","Stop",1,-0.0475774643790321,0.122920968637714
16,228,1351.35,"NoGo",NA,1,0,150,"NoGo","Stop",1,2.96912983371021,-0.189917372395026
16,229,378.5,"Left",1,1,0,200,"Left","NoStop",0,-0.0370711342243552,0.122920968637714
16,230,429.5,"Left",1,1,0,200,"Left","NoStop",0,0.1205238180958,0.122920968637714
16,231,341.0999999,"Right",1,1,0,200,"Right","NoStop",0,-0.152640766234812,0.122920968637714
16,232,435.6,"Left",1,1,0,200,"Left","NoStop",0,0.139373410432132,0.122920968637714
16,233,361.9,"Left",1,1,0,200,"Left","NoStop",0,-0.0883667461560136,0.122920968637714
16,234,295.9,"Left",1,1,0,200,"Left","NoStop",0,-0.29231315504092,0.122920968637714
16,235,252.6,"Left",1,1,0,200,"Left","NoStop",0,-0.426114359657836,0.122920968637714
16,236,243.5,"Right",1,1,0,200,"Right","NoStop",0,-0.454234243307119,0.122920968637714
16,237,1301.288,"NoGo",NA,1,0,200,"NoGo","Stop",1,2.8144333924739,0.122920968637714
16,238,345.8,"Right",1,1,0,250,"Right","NoStop",0,-0.138117309535513,0.435759309670453
16,239,1251.244,"NoGo",NA,1,0,250,"NoGo","Stop",1,2.65979257298548,0.435759309670453
16,240,1201.2,"NoGo",NA,1,0,300,"NoGo","Stop",1,2.50515175349705,0.748597650703193
5,1,70.79999995,"Right",1,1,0,250,"Right","NoStop",0,-0.987894013377129,0.435759309670453
5,2,32.60000002,"Left",1,1,0,250,"Left","NoStop",0,-1.10593572254572,0.435759309670453
5,3,41.20000005,"Left",1,1,0,250,"Left","NoStop",0,-1.0793608873559,0.435759309670453
5,4,173.1999999,"Left",1,1,0,250,"Left","NoStop",0,-0.671468070049597,0.435759309670453
5,5,134.1,"Right",1,0,1,250,"NoGo","Stop",1,-0.792290866519373,0.435759309670453
5,6,92.20000005,"Left",1,1,0,200,"Left","NoStop",0,-0.92176593503574,0.122920968637714
5,7,113.3,"Right",1,1,0,200,"Right","NoStop",0,-0.856564886289161,0.122920968637714
5,8,152.4000001,"Left",1,0,1,200,"NoGo","Stop",1,-0.735742089201366,0.122920968637714
5,9,679.3000001,"Left",1,1,0,150,"Left","NoStop",0,0.892430075063138,-0.189917372395026
5,10,270,"Left",1,1,0,150,"Left","NoStop",0,-0.372346670042724,-0.189917372395026
5,11,241.4,"Right",1,1,0,150,"Right","NoStop",0,-0.460723447226184,-0.189917372395026
5,12,233.8000001,"Right",1,1,0,150,"Right","NoStop",0,-0.484208184909981,-0.189917372395026
5,13,202.6999999,"Right",1,1,0,150,"Right","NoStop",0,-0.580310205472252,-0.189917372395026
5,14,213.9000001,"Left",1,1,0,150,"Left","NoStop",0,-0.545701117285885,-0.189917372395026
5,15,217.1,"Left",1,1,0,150,"Left","NoStop",0,-0.535812806861081,-0.189917372395026
5,16,984.6999999,"Right",1,0,1,150,"NoGo","Stop",1,1.83614573010346,-0.189917372395026
5,17,173.4000001,"Left",1,0,1,100,"Right","NoStop",0,-0.670850050010714,-0.502755713427766
5,18,264.3000001,"Right",1,1,0,100,"Right","NoStop",0,-0.38996022322832,-0.502755713427766
5,19,350.8,"Left",1,1,0,100,"Left","NoStop",0,-0.12266682401393,-0.502755713427766
5,20,188.6999999,"Right",1,1,0,100,"Right","NoStop",0,-0.623571564932687,-0.502755713427766
5,21,142,"Left",1,0,1,100,"Right","NoStop",0,-0.76787909939527,-0.502755713427766
5,22,244.2,"Right",1,1,0,100,"Right","NoStop",0,-0.452071175334097,-0.502755713427766
5,23,795,"Left",1,0,1,100,"NoGo","Stop",1,1.24995430972358,-0.502755713427766
5,24,792.3000001,"Left",1,0,1,50,"NoGo","Stop",1,1.24161104785093,-0.815594054460505
5,25,526.8,"Right",1,1,0,50,"Right","NoStop",0,0.421190266345821,-0.815594054460505
5,26,250.3,"Right",1,1,0,50,"Right","NoStop",0,-0.433221582997765,-0.815594054460505
5,27,549.8000001,"Left",1,1,0,50,"Left","NoStop",0,0.492262500054117,-0.815594054460505
5,28,298.1999999,"Left",1,1,0,50,"Left","NoStop",0,-0.285205932010001,-0.815594054460505
5,29,318,"Right",1,1,0,50,"Right","NoStop",0,-0.224022009035519,-0.815594054460505
5,30,775.4,"Right",1,0,1,50,"NoGo","Stop",1,1.18938840647897,-0.815594054460505
5,31,220.5,"Right",1,1,0,50,"Right","NoStop",0,-0.525306476706404,-0.815594054460505
5,32,735.2,"Right",1,0,1,50,"NoGo","Stop",1,1.06516650288544,-0.815594054460505
5,33,311,"Right",1,1,0,50,"Right","NoStop",0,-0.245652688765737,-0.815594054460505
5,34,590.6,"Left",1,1,0,50,"Left","NoStop",0,0.618338461601231,-0.815594054460505
5,35,254,"Right",1,1,0,50,"Right","NoStop",0,-0.421788223711793,-0.815594054460505
5,36,766,"Right",1,0,1,50,"NoGo","Stop",1,1.16034149369839,-0.815594054460505
5,37,283.9,"Left",1,1,0,50,"Left","NoStop",0,-0.329394320292721,-0.815594054460505
5,38,772.7,"Right",1,0,1,50,"NoGo","Stop",1,1.18104514429731,-0.815594054460505
5,39,652.5,"Left",1,0,1,50,"NoGo","Stop",1,0.809615472358439,-0.815594054460505
5,40,376.8,"Left",1,1,0,50,"Left","NoStop",0,-0.0423242993016936,-0.815594054460505
5,41,322.8,"Left",1,1,0,50,"Left","NoStop",0,-0.209189542934799,-0.815594054460505
5,42,346,"Left",1,1,0,50,"Left","NoStop",0,-0.13749929011465,-0.815594054460505
5,43,400.7,"Right",1,1,0,50,"Right","NoStop",0,0.031529021491477,-0.815594054460505
5,44,280.3000001,"Left",1,1,0,50,"Left","NoStop",0,-0.340518669559252,-0.815594054460505
5,45,369.5,"Left",1,1,0,50,"Left","NoStop",0,-0.0648820081632061,-0.815594054460505
5,46,332.9,"Left",1,1,0,50,"Left","NoStop",0,-0.1779795621812,-0.815594054460505
5,47,229.1999999,"Left",1,0,1,50,"NoGo","Stop",1,-0.498422632207858,-0.815594054460505
5,48,288.2,"Right",1,1,0,50,"Right","NoStop",0,-0.316106902744159,-0.815594054460505
5,49,377,"Right",1,1,0,50,"Right","NoStop",0,-0.0417062798808303,-0.815594054460505
5,50,305.5,"Right",1,1,0,50,"Right","NoStop",0,-0.262648222839479,-0.815594054460505
5,51,348,"Left",1,1,0,50,"Left","NoStop",0,-0.131319095906017,-0.815594054460505
5,52,343.2,"Left",1,1,0,50,"Left","NoStop",0,-0.146151562006737,-0.815594054460505
5,53,309.3000001,"Right",1,1,0,50,"Right","NoStop",0,-0.250905853534066,-0.815594054460505
5,54,259.1,"Left",1,1,0,50,"Left","NoStop",0,-0.406028728479777,-0.815594054460505
5,55,279.7,"Right",1,1,0,50,"Right","NoStop",0,-0.342372728130852,-0.815594054460505
5,56,344.1,"Left",1,0,1,50,"Right","NoStop",0,-0.143370474612852,-0.815594054460505
5,57,392.8,"Left",1,1,0,50,"Left","NoStop",0,0.00711725436737461,-0.815594054460505
5,58,814.9000001,"Left",1,0,1,50,"NoGo","Stop",1,1.31144724240849,-0.815594054460505
5,59,352.6,"Right",1,1,0,50,"Right","NoStop",0,-0.117104649226159,-0.815594054460505
5,60,311.5999999,"Left",1,1,0,50,"Left","NoStop",0,-0.243798630812157,-0.815594054460505
5,61,582.4,"Left",1,1,0,50,"Left","NoStop",0,0.592999665345833,-0.815594054460505
5,62,317.6,"Left",1,1,0,50,"Left","NoStop",0,-0.225258047877246,-0.815594054460505
5,63,284.1,"Right",1,1,0,50,"Right","NoStop",0,-0.328776300871858,-0.815594054460505
5,64,316.6,"Right",1,1,0,50,"Right","NoStop",0,-0.228348144981563,-0.815594054460505
5,65,333,"Left",1,1,0,50,"Left","NoStop",0,-0.177670552470768,-0.815594054460505
5,66,814.4,"Left",1,0,1,50,"NoGo","Stop",1,1.30990219354732,-0.815594054460505
5,67,286.5999999,"Right",1,1,0,50,"Right","NoStop",0,-0.321051058420076,-0.815594054460505
5,68,338.4000001,"Left",1,1,0,50,"Left","NoStop",0,-0.160984027798448,-0.815594054460505
5,69,760.6,"Left",1,0,1,50,"NoGo","Stop",1,1.14365496933508,-0.815594054460505
5,70,342.3000001,"Right",1,1,0,50,"Right","NoStop",0,-0.148932649091612,-0.815594054460505
5,71,744.9000001,"Right",1,0,1,50,"NoGo","Stop",1,1.09514044510632,-0.815594054460505
5,72,320.5,"Left",1,1,0,50,"Left","NoStop",0,-0.216296766274728,-0.815594054460505
5,73,805.0999999,"Left",1,0,1,50,"NoGo","Stop",1,1.28116429016817,-0.815594054460505
5,74,803,"Left",1,0,1,50,"NoGo","Stop",1,1.27467508655811,-0.815594054460505
5,75,479.8,"Right",1,1,0,50,"Right","NoStop",0,0.275955702442933,-0.815594054460505
5,76,838.6,"Left",1,0,1,50,"NoGo","Stop",1,1.38468254347179,-0.815594054460505
5,77,338,"Left",1,1,0,50,"Left","NoStop",0,-0.162220066949184,-0.815594054460505
5,78,350,"Right",1,1,0,50,"Right","NoStop",0,-0.125138901697383,-0.815594054460505
5,79,310.8000001,"Left",1,1,0,50,"Left","NoStop",0,-0.246270707877591,-0.815594054460505
5,80,285.9,"Left",1,1,0,50,"Left","NoStop",0,-0.323214126084088,-0.815594054460505
5,81,352.2,"Right",1,1,0,50,"Right","NoStop",0,-0.118340688067886,-0.815594054460505
5,82,466.9,"Right",1,1,0,50,"Right","NoStop",0,0.236093449797247,-0.815594054460505
5,83,390.3,"Left",1,1,0,50,"Left","NoStop",0,-0.000607988393417303,-0.815594054460505
5,84,780.1999999,"Right",1,0,1,50,"NoGo","Stop",1,1.20422087227068,-0.815594054460505
5,85,959.5999999,"Left",1,0,1,50,"NoGo","Stop",1,1.75858429278511,-0.815594054460505
5,86,386.6999999,"Right",1,1,0,50,"Right","NoStop",0,-0.0117323382779673,-0.815594054460505
5,87,771.8,"Left",1,0,1,50,"NoGo","Stop",1,1.17826405690343,-0.815594054460505
5,88,433.1999999,"Left",1,1,0,50,"Left","NoStop",0,0.131957177072762,-0.815594054460505
5,89,264.4,"Right",1,1,0,50,"Right","NoStop",0,-0.389651213826898,-0.815594054460505
5,90,348.8,"Right",1,1,0,50,"Right","NoStop",0,-0.128847018222563,-0.815594054460505
5,91,404.3,"Left",1,1,0,50,"Left","NoStop",0,0.0426533710670174,-0.815594054460505
5,92,305.9,"Left",1,1,0,50,"Left","NoStop",0,-0.261412183997752,-0.815594054460505
5,93,314.2,"Left",1,1,0,50,"Left","NoStop",0,-0.235764378031923,-0.815594054460505
5,94,819.8000001,"Right",1,0,1,50,"NoGo","Stop",1,1.32658871821964,-0.815594054460505
5,95,341.2,"Left",1,1,0,50,"Left","NoStop",0,-0.152331756215371,-0.815594054460505
5,96,408.5,"Left",1,1,0,50,"Left","NoStop",0,0.0556317789051478,-0.815594054460505
5,97,313.7,"Right",1,1,0,50,"Right","NoStop",0,-0.237309426584082,-0.815594054460505
5,98,783.5,"Left",1,0,1,50,"NoGo","Stop",1,1.21441819302394,-0.815594054460505
5,99,769.9,"Right",1,0,1,50,"NoGo","Stop",1,1.17239287240523,-0.815594054460505
5,100,789,"Right",1,0,1,50,"NoGo","Stop",1,1.23141372709768,-0.815594054460505
5,101,254.7,"Right",1,1,0,50,"Right","NoStop",0,-0.419625155738771,-0.815594054460505
5,102,443.3000001,"Left",1,1,0,50,"Left","NoStop",0,0.163167158444381,-0.815594054460505
5,103,804.8,"Left",1,0,1,50,"NoGo","Stop",1,1.28023726134588,-0.815594054460505
5,104,344.4,"Left",1,1,0,50,"Left","NoStop",0,-0.142443445481557,-0.815594054460505
5,105,340.5,"Right",1,1,0,50,"Right","NoStop",0,-0.154494824188392,-0.815594054460505
5,106,785.9000001,"Right",1,0,1,50,"NoGo","Stop",1,1.22183442638331,-0.815594054460505
5,107,734,"Right",1,0,1,50,"NoGo","Stop",1,1.06145838636026,-0.815594054460505
5,108,329.9,"Right",1,1,0,50,"Right","NoStop",0,-0.18724985349415,-0.815594054460505
5,109,427.1999999,"Left",1,1,0,50,"Left","NoStop",0,0.113416594446862,-0.815594054460505
5,110,759.4000001,"Right",1,0,1,50,"NoGo","Stop",1,1.13994685311891,-0.815594054460505
5,111,348.2,"Right",1,1,0,50,"Right","NoStop",0,-0.130701076485153,-0.815594054460505
5,112,331.5,"Left",1,1,0,50,"Left","NoStop",0,-0.182305698127243,-0.815594054460505
5,113,788.8000001,"Left",1,0,1,50,"NoGo","Stop",1,1.23079570798582,-0.815594054460505
5,114,687.7,"Right",1,1,0,50,"Right","NoStop",0,0.918386890430389,-0.815594054460505
5,115,439.4,"Right",1,1,0,50,"Right","NoStop",0,0.151115779428536,-0.815594054460505
5,116,340.8000001,"Right",1,0,1,50,"Left","NoStop",0,-0.153567794748088,-0.815594054460505
5,117,345.1999999,"Right",1,1,0,50,"Right","NoStop",0,-0.139971368107113,-0.815594054460505
5,118,345.8,"Left",1,1,0,50,"Left","NoStop",0,-0.138117309535513,-0.815594054460505
5,119,401.5,"Right",1,1,0,50,"Right","NoStop",0,0.0340010991749304,-0.815594054460505
5,120,371.6999999,"Right",1,1,0,50,"Right","NoStop",0,-0.0580837948427188,-0.815594054460505
5,121,553.5,"Right",1,1,0,50,"Right","NoStop",0,0.503695859031079,-0.815594054460505
5,122,342.6,"Right",1,0,1,50,"NoGo","Stop",1,-0.148005620269327,-0.815594054460505
5,123,749.2,"Right",1,0,1,50,"NoGo","Stop",1,1.10842786234587,-0.815594054460505
5,124,374.1,"Left",1,1,0,50,"Left","NoStop",0,-0.0506675614833489,-0.815594054460505
5,125,307.1,"Right",1,1,0,50,"Right","NoStop",0,-0.257704067472572,-0.815594054460505
5,126,731.4,"Right",1,0,1,50,"NoGo","Stop",1,1.05342413388903,-0.815594054460505
5,127,289.4,"Right",1,1,0,50,"Right","NoStop",0,-0.312398786218979,-0.815594054460505
5,128,284.8000001,"Right",1,1,0,50,"Right","NoStop",0,-0.326613232589826,-0.815594054460505
5,129,370.5,"Left",1,1,0,50,"Left","NoStop",0,-0.0617919110588893,-0.815594054460505
5,130,746.4000001,"Right",1,0,1,50,"NoGo","Stop",1,1.09977559076279,-0.815594054460505
5,131,336.6,"Left",1,1,0,50,"Left","NoStop",0,-0.166546202895228,-0.815594054460505
5,132,418.2,"Left",1,1,0,50,"Left","NoStop",0,0.0856057208170204,-0.815594054460505
5,133,349.3,"Left",1,1,0,50,"Left","NoStop",0,-0.127301969670405,-0.815594054460505
5,134,316,"Left",1,1,0,50,"Left","NoStop",0,-0.230202203244153,-0.815594054460505
5,135,346.6,"Right",1,1,0,50,"Right","NoStop",0,-0.13564523185206,-0.815594054460505
5,136,479.2,"Left",1,0,1,50,"Right","NoStop",0,0.274101644180343,-0.815594054460505
5,137,898.1999999,"Right",1,1,0,50,"Right","NoStop",0,1.56885233058006,-0.815594054460505
5,138,292.1,"Right",1,1,0,50,"Right","NoStop",0,-0.304055524037324,-0.815594054460505
5,139,780.1,"Right",1,0,1,50,"NoGo","Stop",1,1.20391186286926,-0.815594054460505
5,140,276.3000001,"Right",1,1,0,50,"Right","NoStop",0,-0.352879057976519,-0.815594054460505
5,141,311,"Right",1,1,0,50,"Right","NoStop",0,-0.245652688765737,-0.815594054460505
5,142,226.8000001,"Right",1,0,1,50,"Left","NoStop",0,-0.505838864640199,-0.815594054460505
5,143,316.2,"Right",1,1,0,50,"Right","NoStop",0,-0.22958418382329,-0.815594054460505
5,144,309.4000001,"Left",1,1,0,50,"Left","NoStop",0,-0.250596843823634,-0.815594054460505
5,145,716.7,"Right",1,0,1,50,"NoGo","Stop",1,1.00799970645558,-0.815594054460505
5,146,776.5999999,"Left",1,0,1,50,"NoGo","Stop",1,1.19309652269514,-0.815594054460505
5,147,337,"Right",1,1,0,50,"Right","NoStop",0,-0.165310164053501,-0.815594054460505
5,148,802.4,"Left",1,0,1,50,"NoGo","Stop",1,1.27282102829552,-0.815594054460505
5,149,398.8,"Left",1,1,0,50,"Left","NoStop",0,0.0256578369932752,-0.815594054460505
5,150,760.5,"Left",1,0,1,50,"NoGo","Stop",1,1.14334595962465,-0.815594054460505
5,151,400.3,"Left",1,1,0,50,"Left","NoStop",0,0.0302929826497504,-0.815594054460505
5,152,407.1,"Right",1,1,0,50,"Right","NoStop",0,0.0513056429591044,-0.815594054460505
5,153,399.4,"Left",1,1,0,50,"Left","NoStop",0,0.0275118952558652,-0.815594054460505
5,154,254,"Right",1,1,0,50,"Right","NoStop",0,-0.421788223711793,-0.815594054460505
5,155,368.5,"Left",1,1,0,50,"Left","NoStop",0,-0.0679721052675228,-0.815594054460505
5,156,353.1,"Right",1,1,0,50,"Right","NoStop",0,-0.115559600674001,-0.815594054460505
5,157,747,"Right",1,0,1,50,"NoGo","Stop",1,1.10162964871637,-0.815594054460505
5,158,369.5,"Left",1,1,0,50,"Left","NoStop",0,-0.0648820081632061,-0.815594054460505
5,159,321.8000001,"Left",1,1,0,50,"Left","NoStop",0,-0.212279639730106,-0.815594054460505
5,160,299.8,"Left",1,1,0,50,"Left","NoStop",0,-0.280261776334085,-0.815594054460505
5,161,773,"Left",1,0,1,50,"NoGo","Stop",1,1.18197217342861,-0.815594054460505
5,162,266.7,"Left",1,1,0,50,"Left","NoStop",0,-0.38254399048697,-0.815594054460505
5,163,269.4000001,"Left",1,1,0,50,"Left","NoStop",0,-0.374200727996305,-0.815594054460505
5,164,316.1,"Left",1,1,0,50,"Left","NoStop",0,-0.229893193533721,-0.815594054460505
5,165,314.5,"Left",1,1,0,50,"Left","NoStop",0,-0.234837348900628,-0.815594054460505
5,166,522.4000001,"Right",1,1,0,50,"Right","NoStop",0,0.407593839395837,-0.815594054460505
5,167,744.0999999,"Left",1,0,1,50,"NoGo","Stop",1,1.09266836680484,-0.815594054460505
5,168,727.8,"Left",1,0,1,50,"NoGo","Stop",1,1.04229978431349,-0.815594054460505
5,169,630.1,"Right",1,0,1,50,"NoGo","Stop",1,0.740397297221743,-0.815594054460505
5,170,301.6,"Left",1,1,0,50,"Left","NoStop",0,-0.274699601546314,-0.815594054460505
5,171,461.6,"Right",1,1,0,50,"Right","NoStop",0,0.219715935144368,-0.815594054460505
5,172,302.1,"Left",1,1,0,50,"Left","NoStop",0,-0.273154552994156,-0.815594054460505
5,173,468.5,"Left",1,1,0,50,"Left","NoStop",0,0.241037605164154,-0.815594054460505
5,174,526.3000001,"Right",1,1,0,50,"Right","NoStop",0,0.419645218102673,-0.815594054460505
5,175,526.5,"Right",1,1,0,50,"Right","NoStop",0,0.420263237214526,-0.815594054460505
5,176,455.4,"Left",1,1,0,50,"Left","NoStop",0,0.200557333097604,-0.815594054460505
5,177,318.1,"Left",1,1,0,50,"Left","NoStop",0,-0.223712999325088,-0.815594054460505
5,178,415.3,"Left",1,0,1,50,"Right","NoStop",0,0.0766444392145018,-0.815594054460505
5,179,743.5999999,"Right",1,0,1,50,"NoGo","Stop",1,1.09112331825269,-0.815594054460505
5,180,375.1,"Right",1,1,0,50,"Right","NoStop",0,-0.0475774643790321,-0.815594054460505
5,181,401.5,"Right",1,1,0,50,"Right","NoStop",0,0.0340010991749304,-0.815594054460505
5,182,331.2,"Left",1,0,1,50,"NoGo","Stop",1,-0.183232727258538,-0.815594054460505
5,183,339.4,"Left",1,1,0,50,"Left","NoStop",0,-0.157893931003141,-0.815594054460505
5,184,300.9,"Left",1,1,0,50,"Left","NoStop",0,-0.276862669519336,-0.815594054460505
5,185,318.3000001,"Right",1,1,0,50,"Right","NoStop",0,-0.223094979595215,-0.815594054460505
5,186,355.3,"Right",1,1,0,50,"Right","NoStop",0,-0.108761387044504,-0.815594054460505
5,187,293.5999999,"Left",1,1,0,50,"Left","NoStop",0,-0.299420378689858,-0.815594054460505
5,188,312.3,"Left",1,1,0,50,"Left","NoStop",0,-0.241635562530125,-0.815594054460505
5,189,310.3,"Left",1,1,0,50,"Left","NoStop",0,-0.247815756738759,-0.815594054460505
5,190,315.8,"Right",1,1,0,50,"Right","NoStop",0,-0.230820222665016,-0.815594054460505
5,191,757.6999999,"Right",1,0,1,50,"NoGo","Stop",1,1.13469368742355,-0.815594054460505
5,192,708.4,"Right",1,0,1,50,"NoGo","Stop",1,0.982351900489746,-0.815594054460505
5,193,363.1,"Left",1,1,0,50,"Left","NoStop",0,-0.0846586296308333,-0.815594054460505
5,194,763.3,"Left",1,0,1,50,"NoGo","Stop",1,1.15199823151674,-0.815594054460505
5,195,438.8,"Left",1,1,0,50,"Left","NoStop",0,0.149261721165946,-0.815594054460505
5,196,321.4,"Right",1,1,0,50,"Right","NoStop",0,-0.213515678880843,-0.815594054460505
5,197,775.2,"Left",1,0,1,50,"NoGo","Stop",1,1.18877038705811,-0.815594054460505
5,198,366.7,"Left",1,1,0,50,"Left","NoStop",0,-0.073534280055293,-0.815594054460505
5,199,339.9,"Right",1,1,0,50,"Right","NoStop",0,-0.156348882450982,-0.815594054460505
5,200,289.6,"Left",1,1,0,50,"Left","NoStop",0,-0.311780766798116,-0.815594054460505
5,201,296.1,"Left",1,1,0,50,"Left","NoStop",0,-0.291695135620057,-0.815594054460505
5,202,228.5,"Left",1,1,0,50,"Left","NoStop",0,-0.50058569987187,-0.815594054460505
5,203,400.8,"Right",1,1,0,50,"Right","NoStop",0,0.0318380312019087,-0.815594054460505
5,204,685.8,"Right",1,0,1,50,"NoGo","Stop",1,0.912515705932187,-0.815594054460505
5,205,684.1,"Left",1,0,1,50,"NoGo","Stop",1,0.907262540854848,-0.815594054460505
5,206,743.3,"Left",1,0,1,50,"NoGo","Stop",1,1.0901962894304,-0.815594054460505
5,207,341.8000001,"Left",1,1,0,50,"Left","NoStop",0,-0.150477697643771,-0.815594054460505
5,208,755.5,"Right",1,0,1,50,"NoGo","Stop",1,1.12789547410307,-0.815594054460505
5,209,347.3000001,"Right",1,1,0,50,"Right","NoStop",0,-0.133482163570029,-0.815594054460505
5,210,394.6999999,"Left",1,1,0,50,"Left","NoStop",0,0.0129884385565668,-0.815594054460505
5,211,704.2,"Right",1,0,1,50,"NoGo","Stop",1,0.969373492651616,-0.815594054460505
5,212,342.8,"Right",1,1,0,50,"Right","NoStop",0,-0.147387600848464,-0.815594054460505
5,213,312.1,"Right",1,1,0,50,"Right","NoStop",0,-0.242253581950988,-0.815594054460505
5,214,325.9000001,"Right",1,1,0,50,"Right","NoStop",0,-0.199610241602407,-0.815594054460505
5,215,451.6,"Left",1,1,0,50,"Left","NoStop",0,0.1888149641012,-0.815594054460505
5,216,375.1,"Left",1,1,0,50,"Left","NoStop",0,-0.0475774643790321,-0.815594054460505
5,217,357.9,"Right",1,1,0,50,"Right","NoStop",0,-0.100727134573281,-0.815594054460505
5,218,378.8,"Left",1,1,0,50,"Left","NoStop",0,-0.0361441050930601,-0.815594054460505
5,219,328.4000001,"Right",1,1,0,50,"Right","NoStop",0,-0.191884998841615,-0.815594054460505
