"id","trial_number","rt","response","attempt","correct","incorrect","ssd","answer","task","IntrusiveSum","SSRT"
2,1,0.1262,"Right",1,1,0,250,"Right","NoStop",14,261
2,2,0.1427,"Left",1,1,0,250,"Left","NoStop",14,261
2,3,0.1355,"Right",1,1,0,250,"Right","NoStop",14,261
2,4,0.1069,"Right",1,0,1,250,"NoGo","Stop",14,261
2,5,0.1586,"Right",1,1,0,200,"Right","NoStop",14,261
2,6,0.2382,"Left",1,1,0,200,"Left","NoStop",14,261
2,7,0.1462,"Right",1,1,0,200,"Right","NoStop",14,261
2,8,0.1873,"Left",1,1,0,200,"Left","NoStop",14,261
2,9,0.1926,"Right",1,1,0,200,"Right","NoStop",14,261
2,10,0.2214,"Right",1,0,1,200,"NoGo","Stop",14,261
2,11,0.2083,"Right",1,1,0,150,"Right","NoStop",14,261
2,12,0.2344,"Right",1,0,1,150,"NoGo","Stop",14,261
2,13,1.0536,"Right",1,0,1,100,"NoGo","Stop",14,261
2,14,0.3064,"Left",1,1,0,50,"Left","NoStop",14,261
2,15,0.3955,"Right",1,1,0,50,"Right","NoStop",14,261
2,16,1.449868,"NoGo",NA,1,0,50,"NoGo","Stop",14,261
2,17,0.3364,"Right",1,1,0,100,"Right","NoStop",14,261
2,18,0.2636,"Right",1,1,0,100,"Right","NoStop",14,261
2,19,0.4001,"Left",1,1,0,100,"Left","NoStop",14,261
2,20,0.3638,"Left",1,1,0,100,"Left","NoStop",14,261
2,21,0.3194,"Left",1,1,0,100,"Left","NoStop",14,261
2,22,0.2796,"Right",1,1,0,100,"Right","NoStop",14,261
2,23,0.3572,"Right",1,1,0,100,"Right","NoStop",14,261
2,24,1.39986,"NoGo",NA,1,0,100,"NoGo","Stop",14,261
2,25,0.247,"Right",1,0,1,150,"NoGo","Stop",14,261
2,26,0.2971,"Left",1,1,0,100,"Left","NoStop",14,261
2,27,0.3122,"Left",1,1,0,100,"Left","NoStop",14,261
2,28,0.3165,"Left",1,0,1,100,"NoGo","Stop",14,261
2,29,0.3991,"Right",1,1,0,50,"Right","NoStop",14,261
2,30,0.5195,"Right",1,1,0,50,"Right","NoStop",14,261
2,31,1.44995,"NoGo",NA,1,0,50,"NoGo","Stop",14,261
2,32,1.399901,"NoGo",NA,1,0,100,"NoGo","Stop",14,261
2,33,0.3693,"Left",1,1,0,150,"Left","NoStop",14,261
2,34,1.349854,"NoGo",NA,1,0,150,"NoGo","Stop",14,261
2,35,1.299808,"NoGo",NA,1,0,200,"NoGo","Stop",14,261
2,36,0.2508,"Right",1,1,0,250,"Right","NoStop",14,261
2,37,0.2015,"Left",1,1,0,250,"Left","NoStop",14,261
2,38,0.2563,"Right",1,1,0,250,"Right","NoStop",14,261
2,39,0.1723,"Left",1,1,0,250,"Left","NoStop",14,261
2,40,0.1894,"Left",1,1,0,250,"Left","NoStop",14,261
2,41,0.2504,"Right",1,1,0,250,"Right","NoStop",14,261
2,42,0.2042,"Right",1,1,0,250,"Right","NoStop",14,261
2,43,0.2254,"Left",1,0,1,250,"NoGo","Stop",14,261
2,44,0.4718,"Right",1,1,0,200,"Right","NoStop",14,261
2,45,1.299944,"NoGo",NA,1,0,200,"NoGo","Stop",14,261
2,46,0.19,"Right",1,1,0,250,"Right","NoStop",14,261
2,47,0.1997,"Right",1,1,0,250,"Right","NoStop",14,261
2,48,0.1435,"Right",1,0,1,250,"NoGo","Stop",14,261
2,49,0.352,"Right",1,1,0,200,"Right","NoStop",14,261
2,50,0.3118,"Right",1,1,0,200,"Right","NoStop",14,261
2,51,0.4196,"Left",1,1,0,200,"Left","NoStop",14,261
2,52,1.299865,"NoGo",NA,1,0,200,"NoGo","Stop",14,261
2,53,0.2011,"Right",1,1,0,250,"Right","NoStop",14,261
2,54,0.2112,"Left",1,1,0,250,"Left","NoStop",14,261
2,55,0.2844,"Right",1,1,0,250,"Right","NoStop",14,261
2,56,0.2216,"Left",1,1,0,250,"Left","NoStop",14,261
2,57,0.1863,"Left",1,0,1,250,"NoGo","Stop",14,261
2,58,0.2996,"Right",1,1,0,200,"Right","NoStop",14,261
2,59,0.3294,"Right",1,1,0,200,"Right","NoStop",14,261
2,60,0.4186,"Left",1,1,0,200,"Left","NoStop",14,261
2,61,1.299905,"NoGo",NA,1,0,200,"NoGo","Stop",14,261
2,62,0.1398,"Left",1,0,1,250,"NoGo","Stop",14,261
2,63,0.4715,"Right",1,1,0,200,"Right","NoStop",14,261
2,64,0.4672,"Right",1,1,0,200,"Right","NoStop",14,261
2,65,0.359,"Left",1,1,0,200,"Left","NoStop",14,261
2,66,0.3637,"Left",1,1,0,200,"Left","NoStop",14,261
2,67,0.2366,"Left",1,1,0,200,"Left","NoStop",14,261
2,68,0.4165,"Right",1,1,0,200,"Right","NoStop",14,261
2,69,1.300124,"NoGo",NA,1,0,200,"NoGo","Stop",14,261
2,70,0.2091,"Right",1,1,0,250,"Right","NoStop",14,261
2,71,1.249913,"NoGo",NA,1,0,250,"NoGo","Stop",14,261
2,72,0.2081,"Left",1,1,0,300,"Left","NoStop",14,261
2,73,0.3161,"Left",1,1,0,300,"Left","NoStop",14,261
2,74,0.1732,"Right",1,1,0,300,"Right","NoStop",14,261
2,75,0.2427,"Left",1,1,0,300,"Left","NoStop",14,261
2,76,0.2296,"Right",1,1,0,300,"Right","NoStop",14,261
2,77,0.1891,"Left",1,1,0,300,"Left","NoStop",14,261
2,78,0.5347,"Left",1,1,0,300,"Left","NoStop",14,261
2,79,0.2277,"Left",1,0,1,300,"NoGo","Stop",14,261
2,80,0.3279,"Left",1,1,0,250,"Left","NoStop",14,261
2,81,0.2271,"Left",1,1,0,250,"Left","NoStop",14,261
2,82,0.436,"Right",1,1,0,250,"Right","NoStop",14,261
2,83,0.2582,"Right",1,1,0,250,"Right","NoStop",14,261
2,84,0.2657,"Left",1,1,0,250,"Left","NoStop",14,261
2,85,0.2932,"Right",1,1,0,250,"Right","NoStop",14,261
2,86,0.2015,"Right",1,1,0,250,"Right","NoStop",14,261
2,87,0.1118,"Right",1,1,0,250,"Right","NoStop",14,261
2,88,1.249919,"NoGo",NA,1,0,250,"NoGo","Stop",14,261
2,89,0.1173,"Right",1,1,0,300,"Right","NoStop",14,261
2,90,0.248,"Left",1,1,0,300,"Left","NoStop",14,261
2,91,0.1801,"Left",1,1,0,300,"Left","NoStop",14,261
2,92,1.199824,"NoGo",NA,1,0,300,"NoGo","Stop",14,261
2,93,0.08740000001,"Right",1,0,1,350,"NoGo","Stop",14,261
2,94,0.3502,"Right",1,1,0,300,"Right","NoStop",14,261
2,95,0.2691,"Left",1,1,0,300,"Left","NoStop",14,261
2,96,0.2224,"Left",1,1,0,300,"Left","NoStop",14,261
2,97,0.1941,"Right",1,1,0,300,"Right","NoStop",14,261
2,98,0.2097,"Left",1,1,0,300,"Left","NoStop",14,261
2,99,0.3323,"Left",1,1,0,300,"Left","NoStop",14,261
2,100,0.1043,"Right",1,1,0,300,"Right","NoStop",14,261
2,101,0.1199,"Right",1,1,0,300,"Right","NoStop",14,261
2,102,0.1577,"Right",1,1,0,300,"Right","NoStop",14,261
2,103,1.199883,"NoGo",NA,1,0,300,"NoGo","Stop",14,261
2,104,0.03980000001,"Right",1,0,1,350,"NoGo","Stop",14,261
2,105,0.1396,"Right",1,1,0,300,"Right","NoStop",14,261
2,106,0.1271,"Right",1,0,1,300,"NoGo","Stop",14,261
2,107,0.217,"Left",1,1,0,250,"Left","NoStop",14,261
2,108,0.2292,"Right",1,1,0,250,"Right","NoStop",14,261
2,109,1.249831,"NoGo",NA,1,0,250,"NoGo","Stop",14,261
2,110,0.1278,"Left",1,1,0,300,"Left","NoStop",14,261
2,111,0.1996,"Left",1,1,0,300,"Left","NoStop",14,261
2,112,0.1846,"Right",1,1,0,300,"Right","NoStop",14,261
2,113,0.2197,"Right",1,1,0,300,"Right","NoStop",14,261
2,114,0.1467,"Right",1,1,0,300,"Right","NoStop",14,261
2,115,0.2735,"Left",1,1,0,300,"Left","NoStop",14,261
2,116,0.1334,"Left",1,1,0,300,"Left","NoStop",14,261
2,117,1.199822,"NoGo",NA,1,0,300,"NoGo","Stop",14,261
2,118,0.1613,"Left",1,0,1,350,"NoGo","Stop",14,261
2,119,0.2313,"Left",1,1,0,300,"Left","NoStop",14,261
2,120,0.2208,"Right",1,1,0,300,"Right","NoStop",14,261
2,121,0.419,"Left",1,1,0,300,"Left","NoStop",14,261
2,122,0.1585,"Left",1,1,0,300,"Left","NoStop",14,261
2,123,0.2182,"Right",1,1,0,300,"Right","NoStop",14,261
2,124,0.1425,"Left",1,1,0,300,"Left","NoStop",14,261
2,125,1.200163,"NoGo",NA,1,0,300,"NoGo","Stop",14,261
2,126,0.1043,"Left",1,1,0,350,"Left","NoStop",14,261
2,127,0.05789999998,"Left",1,1,0,350,"Left","NoStop",14,261
2,128,0.166,"Left",1,1,0,350,"Left","NoStop",14,261
2,129,0.02930000001,"Left",1,1,0,350,"Left","NoStop",14,261
2,130,0.2893,"Right",1,1,0,350,"Right","NoStop",14,261
2,131,0.1097,"Left",1,0,1,350,"NoGo","Stop",14,261
2,132,0.263,"Left",1,1,0,300,"Left","NoStop",14,261
2,133,0.1666,"Left",1,1,0,300,"Left","NoStop",14,261
2,134,0.1239,"Left",1,1,0,300,"Left","NoStop",14,261
2,135,0.1069,"Left",1,1,0,300,"Left","NoStop",14,261
2,136,0.2418,"Right",1,1,0,300,"Right","NoStop",14,261
2,137,0.2011,"Left",1,1,0,300,"Left","NoStop",14,261
2,138,0.1795,"Right",1,1,0,300,"Right","NoStop",14,261
2,139,0.1625,"Right",1,1,0,300,"Right","NoStop",14,261
2,140,0.2903,"Left",1,1,0,300,"Left","NoStop",14,261
2,141,0.2989,"Left",1,1,0,300,"Left","NoStop",14,261
2,142,1.199944,"NoGo",NA,1,0,300,"NoGo","Stop",14,261
2,143,0.3434,"Right",1,1,0,350,"Right","NoStop",14,261
2,144,0.07530000001,"Right",1,1,0,350,"Right","NoStop",14,261
2,145,0.09290000001,"Right",1,1,0,350,"Right","NoStop",14,261
2,146,0.1442,"Right",1,0,1,350,"NoGo","Stop",14,261
2,147,0.3399,"Right",1,0,1,300,"Left","NoStop",14,261
2,148,0.2266,"Left",1,1,0,300,"Left","NoStop",14,261
2,149,0.2847,"Right",1,1,0,300,"Right","NoStop",14,261
2,150,0.2922,"Right",1,1,0,300,"Right","NoStop",14,261
2,151,0.2281,"Right",1,1,0,300,"Right","NoStop",14,261
2,152,0.2537,"Right",1,1,0,300,"Right","NoStop",14,261
2,153,0.8075,"Left",1,1,0,300,"Left","NoStop",14,261
2,154,0.2789,"Left",1,1,0,300,"Left","NoStop",14,261
2,155,0.1962,"Left",1,0,1,300,"NoGo","Stop",14,261
2,156,0.6254,"Right",1,1,0,250,"Right","NoStop",14,261
2,157,0.3682,"Left",1,1,0,250,"Left","NoStop",14,261
2,158,0.301,"Left",1,1,0,250,"Left","NoStop",14,261
2,159,0.2628,"Right",1,1,0,250,"Right","NoStop",14,261
2,160,0.3104,"Left",1,1,0,250,"Left","NoStop",14,261
2,161,0.3604,"Right",1,1,0,250,"Right","NoStop",14,261
2,162,0.3455,"Left",1,1,0,250,"Left","NoStop",14,261
2,163,0.2451,"Left",1,1,0,250,"Left","NoStop",14,261
2,164,0.4292,"Left",1,1,0,250,"Left","NoStop",14,261
2,165,0.2743,"Left",1,1,0,250,"Left","NoStop",14,261
2,166,0.2429,"Left",1,1,0,250,"Left","NoStop",14,261
2,167,0.174,"Left",1,0,1,250,"NoGo","Stop",14,261
2,168,0.3318,"Right",1,1,0,200,"Right","NoStop",14,261
2,169,0.3373,"Left",1,1,0,200,"Left","NoStop",14,261
2,170,0.1991,"Right",1,1,0,200,"Right","NoStop",14,261
2,171,0.1859,"Left",1,1,0,200,"Left","NoStop",14,261
2,172,0.1987,"Left",1,0,1,200,"NoGo","Stop",14,261
2,173,1.349893,"NoGo",NA,1,0,150,"NoGo","Stop",14,261
2,174,0.2111,"Right",1,1,0,200,"Right","NoStop",14,261
2,175,0.235,"Right",1,0,1,200,"NoGo","Stop",14,261
2,176,0.2699,"Right",1,1,0,150,"Right","NoStop",14,261
2,177,1.349838,"NoGo",NA,1,0,150,"NoGo","Stop",14,261
2,178,0.2477,"Left",1,1,0,200,"Left","NoStop",14,261
2,179,0.3236,"Right",1,1,0,200,"Right","NoStop",14,261
2,180,1.299833,"NoGo",NA,1,0,200,"NoGo","Stop",14,261
2,181,0.2506,"Left",1,1,0,250,"Left","NoStop",14,261
2,182,0.1615,"Left",1,1,0,250,"Left","NoStop",14,261
2,183,0.2137,"Left",1,1,0,250,"Left","NoStop",14,261
2,184,0.3129,"Left",1,1,0,250,"Left","NoStop",14,261
2,185,0.3582,"Right",1,1,0,250,"Right","NoStop",14,261
2,186,0.2438,"Left",1,1,0,250,"Left","NoStop",14,261
2,187,1.249808,"NoGo",NA,1,0,250,"NoGo","Stop",14,261
2,188,0.1282,"Left",1,1,0,300,"Left","NoStop",14,261
2,189,0.1528,"Right",1,1,0,300,"Right","NoStop",14,261
2,190,0.2405,"Left",1,1,0,300,"Left","NoStop",14,261
2,191,0.1115,"Left",1,1,0,300,"Left","NoStop",14,261
2,192,0.2095,"Right",1,0,1,300,"NoGo","Stop",14,261
2,193,0.2551,"Right",1,1,0,250,"Right","NoStop",14,261
2,194,0.304,"Right",1,1,0,250,"Right","NoStop",14,261
2,195,0.2804,"Left",1,1,0,250,"Left","NoStop",14,261
2,196,0.1834,"Right",1,1,0,250,"Right","NoStop",14,261
2,197,1.249819,"NoGo",NA,1,0,250,"NoGo","Stop",14,261
2,198,0.1596,"Right",1,0,1,300,"NoGo","Stop",14,261
2,199,0.3672,"Right",1,1,0,250,"Right","NoStop",14,261
2,200,0.2276,"Left",1,0,1,250,"NoGo","Stop",14,261
2,201,1.299885,"NoGo",NA,1,0,200,"NoGo","Stop",14,261
2,202,0.2881,"Right",1,1,0,250,"Right","NoStop",14,261
2,203,0.3445,"Right",1,1,0,250,"Right","NoStop",14,261
2,204,0.2425,"Right",1,1,0,250,"Right","NoStop",14,261
2,205,0.4099,"Left",1,1,0,250,"Left","NoStop",14,261
2,206,0.1993,"Left",1,0,1,250,"NoGo","Stop",14,261
2,207,0.5739,"Left",1,1,0,200,"Left","NoStop",14,261
2,208,0.464,"Left",1,1,0,200,"Left","NoStop",14,261
2,209,0.4049,"Right",1,1,0,200,"Right","NoStop",14,261
2,210,0.3499,"Left",1,1,0,200,"Left","NoStop",14,261
2,211,1.299817,"NoGo",NA,1,0,200,"NoGo","Stop",14,261
2,212,0.3503,"Right",1,1,0,250,"Right","NoStop",14,261
2,213,0.3312,"Left",1,1,0,250,"Left","NoStop",14,261
2,214,0.4503,"Left",1,1,0,250,"Left","NoStop",14,261
2,215,0.2681,"Right",1,1,0,250,"Right","NoStop",14,261
2,216,0.2477,"Right",1,1,0,250,"Right","NoStop",14,261
2,217,0.3638,"Left",1,1,0,250,"Left","NoStop",14,261
2,218,0.2753,"Left",1,1,0,250,"Left","NoStop",14,261
2,219,1.249982,"NoGo",NA,1,0,250,"NoGo","Stop",14,261
2,220,0.2393,"Left",1,1,0,300,"Left","NoStop",14,261
2,221,0.312,"Left",1,1,0,300,"Left","NoStop",14,261
2,222,1.199996,"NoGo",NA,1,0,300,"NoGo","Stop",14,261
2,223,0.1343,"Left",1,0,1,350,"NoGo","Stop",14,261
2,224,1.19979,"NoGo",NA,1,0,300,"NoGo","Stop",14,261
2,225,0.08380000001,"Right",1,1,0,350,"Right","NoStop",14,261
2,226,0.2511,"Right",1,0,1,350,"NoGo","Stop",14,261
2,227,1.200048,"NoGo",NA,1,0,300,"NoGo","Stop",14,261
2,228,0.2005,"Right",1,1,0,350,"Right","NoStop",14,261
2,229,0.3106,"Right",1,1,0,350,"Right","NoStop",14,261
2,230,1.149904,"NoGo",NA,1,0,350,"NoGo","Stop",14,261
2,231,0.1058,"Left",1,0,1,400,"NoGo","Stop",14,261
2,232,0.3662,"Right",1,1,0,350,"Right","NoStop",14,261
2,233,0.271,"Right",1,1,0,350,"Right","NoStop",14,261
2,234,0.3211,"Left",1,1,0,350,"Left","NoStop",14,261
2,235,0.1605,"Right",1,0,1,350,"NoGo","Stop",14,261
2,236,0.3545,"Left",1,1,0,300,"Left","NoStop",14,261
2,237,0.261,"Right",1,1,0,300,"Right","NoStop",14,261
2,238,0.2502,"Right",1,1,0,300,"Right","NoStop",14,261
2,239,0.1554,"Right",1,1,0,300,"Right","NoStop",14,261
2,240,1.199798,"NoGo",NA,1,0,300,"NoGo","Stop",14,261
3,1,0.1373,"Right",1,1,0,250,"Right","NoStop",11,252
3,2,0.1561,"Right",1,1,0,250,"Right","NoStop",11,252
3,3,0.1556,"Right",1,1,0,250,"Right","NoStop",11,252
3,4,0.1111,"Right",1,0,1,250,"NoGo","Stop",11,252
3,5,0.3142,"Left",1,1,0,200,"Left","NoStop",11,252
3,6,0.4311999999,"Right",1,0,1,200,"NoGo","Stop",11,252
3,7,0.51,"Right",1,1,0,150,"Right","NoStop",11,252
3,8,1.349587,"NoGo",NA,1,0,150,"NoGo","Stop",11,252
3,9,1.299548,"NoGo",NA,1,0,200,"NoGo","Stop",11,252
3,10,0.2909,"Right",1,1,0,250,"Right","NoStop",11,252
3,11,0.2516,"Right",1,0,1,250,"NoGo","Stop",11,252
3,12,1.299613,"NoGo",NA,1,0,200,"NoGo","Stop",11,252
3,13,0.4109,"Right",1,1,0,250,"Right","NoStop",11,252
3,14,0.1322,"Right",1,1,0,250,"Right","NoStop",11,252
3,15,0.3753000001,"Left",1,1,0,250,"Left","NoStop",11,252
3,16,0.2356,"Left",1,1,0,250,"Left","NoStop",11,252
3,17,0.4007,"Right",1,1,0,250,"Right","NoStop",11,252
3,18,0.1057,"Right",1,1,0,250,"Right","NoStop",11,252
3,19,0.2605,"Right",1,1,0,250,"Right","NoStop",11,252
3,20,0.3676999999,"Left",1,1,0,250,"Left","NoStop",11,252
3,21,1.249483,"NoGo",NA,1,0,250,"NoGo","Stop",11,252
3,22,0.2967,"Right",1,1,0,300,"Right","NoStop",11,252
3,23,0.0425,"Left",1,1,0,300,"Left","NoStop",11,252
3,24,0.1329,"Right",1,1,0,300,"Right","NoStop",11,252
3,25,0.1029,"Left",1,0,1,300,"NoGo","Stop",11,252
3,26,0.4323,"Left",1,1,0,250,"Left","NoStop",11,252
3,27,0.1424,"Right",1,1,0,250,"Right","NoStop",11,252
3,28,0.3392,"Right",1,1,0,250,"Right","NoStop",11,252
3,29,0.5653000001,"Right",1,1,0,250,"Right","NoStop",11,252
3,30,0.2241,"Left",1,1,0,250,"Left","NoStop",11,252
3,31,0.2706,"Left",1,1,0,250,"Left","NoStop",11,252
3,32,0.2424,"Right",1,1,0,250,"Right","NoStop",11,252
3,33,0.1838,"Left",1,1,0,250,"Left","NoStop",11,252
3,34,0.4079000001,"Right",1,1,0,250,"Right","NoStop",11,252
3,35,1.249522,"NoGo",NA,1,0,250,"NoGo","Stop",11,252
3,36,0.1129,"Left",1,1,0,300,"Left","NoStop",11,252
3,37,0.1061,"Left",1,1,0,300,"Left","NoStop",11,252
3,38,0.2511,"Right",1,1,0,300,"Right","NoStop",11,252
3,39,0.184,"Left",1,1,0,300,"Left","NoStop",11,252
3,40,0.2466,"Right",1,1,0,300,"Right","NoStop",11,252
3,41,0.1831999999,"Right",1,1,0,300,"Right","NoStop",11,252
3,42,0.3002,"Left",1,1,0,300,"Left","NoStop",11,252
3,43,1.199494,"NoGo",NA,1,0,300,"NoGo","Stop",11,252
3,44,0.0320999999,"Left",1,1,0,350,"Left","NoStop",11,252
3,45,0.2523000001,"Left",1,1,0,350,"Left","NoStop",11,252
3,46,1.149547,"NoGo",NA,1,0,350,"NoGo","Stop",11,252
3,47,0.09,"Left",1,1,0,400,"Left","NoStop",11,252
3,48,0.04119999993,"Right",1,1,0,400,"Right","NoStop",11,252
3,49,0.0845,"Left",1,0,1,400,"NoGo","Stop",11,252
3,50,0.1562,"Left",1,1,0,350,"Left","NoStop",11,252
3,51,0.2156999999,"Left",1,1,0,350,"Left","NoStop",11,252
3,52,0.1648000001,"Right",1,1,0,350,"Right","NoStop",11,252
3,53,0.1141,"Left",1,0,1,350,"NoGo","Stop",11,252
3,54,0.1369,"Left",1,1,0,300,"Left","NoStop",11,252
3,55,0.1439,"Left",1,1,0,300,"Left","NoStop",11,252
3,56,0.1424,"Right",1,1,0,300,"Right","NoStop",11,252
3,57,0.1566999999,"Right",1,1,0,300,"Right","NoStop",11,252
3,58,0.2782,"Left",1,1,0,300,"Left","NoStop",11,252
3,59,0.1105,"Right",1,1,0,300,"Right","NoStop",11,252
3,60,0.178,"Left",1,1,0,300,"Left","NoStop",11,252
3,61,1.0131,"Right",1,1,0,300,"Right","NoStop",11,252
3,62,0.08060000002,"Right",1,0,1,300,"NoGo","Stop",11,252
3,63,0.2661999999,"Left",1,1,0,250,"Left","NoStop",11,252
3,64,0.1589,"Left",1,1,0,250,"Left","NoStop",11,252
3,65,0.1224,"Left",1,1,0,250,"Left","NoStop",11,252
3,66,0.04929999995,"Left",1,1,0,250,"Left","NoStop",11,252
3,67,0.2348000001,"Right",1,1,0,250,"Right","NoStop",11,252
3,68,0.3823,"Right",1,1,0,250,"Right","NoStop",11,252
3,69,0.09969999993,"Right",1,1,0,250,"Right","NoStop",11,252
3,70,0.1691,"Left",1,1,0,250,"Left","NoStop",11,252
3,71,0.1971999999,"Right",1,1,0,250,"Right","NoStop",11,252
3,72,0.04429999995,"Right",1,0,1,250,"NoGo","Stop",11,252
3,73,0.1798,"Left",1,1,0,200,"Left","NoStop",11,252
3,74,0.1398,"Left",1,1,0,200,"Left","NoStop",11,252
3,75,0.1933,"Right",1,1,0,200,"Right","NoStop",11,252
3,76,0.1452,"Left",1,1,0,200,"Left","NoStop",11,252
3,77,0.3635999999,"Right",1,1,0,200,"Right","NoStop",11,252
3,78,0.2248,"Right",1,1,0,200,"Right","NoStop",11,252
3,79,0.1486999999,"Left",1,1,0,200,"Left","NoStop",11,252
3,80,0.1781,"Right",1,0,1,200,"NoGo","Stop",11,252
3,81,0.2194,"Left",1,1,0,150,"Left","NoStop",11,252
3,82,0.2138000001,"Right",1,1,0,150,"Right","NoStop",11,252
3,83,0.4283,"Left",1,1,0,150,"Left","NoStop",11,252
3,84,0.218,"Right",1,1,0,150,"Right","NoStop",11,252
3,85,0.1934,"Left",1,0,1,150,"NoGo","Stop",11,252
3,86,1.399861,"NoGo",NA,1,0,100,"NoGo","Stop",11,252
3,87,0.2464,"Right",1,1,0,150,"Right","NoStop",11,252
3,88,0.2023,"Right",1,1,0,150,"Right","NoStop",11,252
3,89,0.2157,"Right",1,1,0,150,"Right","NoStop",11,252
3,90,0.2035,"Right",1,1,0,150,"Right","NoStop",11,252
3,91,0.2761999999,"Left",1,1,0,150,"Left","NoStop",11,252
3,92,0.3520999999,"Right",1,1,0,150,"Right","NoStop",11,252
3,93,1.349506,"NoGo",NA,1,0,150,"NoGo","Stop",11,252
3,94,0.1421,"Right",1,1,0,200,"Right","NoStop",11,252
3,95,0.1587,"Right",1,0,1,200,"NoGo","Stop",11,252
3,96,0.6318000001,"Right",1,0,1,150,"Left","NoStop",11,252
3,97,0.202,"Right",1,1,0,150,"Right","NoStop",11,252
3,98,0.5325,"Left",1,1,0,150,"Left","NoStop",11,252
3,99,0.2174,"Left",1,1,0,150,"Left","NoStop",11,252
3,100,0.2694,"Right",1,1,0,150,"Right","NoStop",11,252
3,101,0.1962,"Right",1,1,0,150,"Right","NoStop",11,252
3,102,0.2454,"Left",1,1,0,150,"Left","NoStop",11,252
3,103,0.1948000001,"Right",1,0,1,150,"NoGo","Stop",11,252
3,104,0.2120999999,"Right",1,1,0,100,"Right","NoStop",11,252
3,105,0.2946,"Left",1,1,0,100,"Left","NoStop",11,252
3,106,0.2908000001,"Left",1,1,0,100,"Left","NoStop",11,252
3,107,0.2691,"Right",1,1,0,100,"Right","NoStop",11,252
3,108,0.453,"Left",1,1,0,100,"Left","NoStop",11,252
3,109,0.2035,"Right",1,0,1,100,"NoGo","Stop",11,252
3,110,0.3173,"Right",1,1,0,50,"Right","NoStop",11,252
3,111,0.3824,"Right",1,1,0,50,"Right","NoStop",11,252
3,112,1.449484,"NoGo",NA,1,0,50,"NoGo","Stop",11,252
3,113,0.4240999999,"Left",1,1,0,100,"Left","NoStop",11,252
3,114,0.2096,"Right",1,1,0,100,"Right","NoStop",11,252
3,115,1.39933,"NoGo",NA,1,0,100,"NoGo","Stop",11,252
3,116,0.2584,"Right",1,0,1,150,"NoGo","Stop",11,252
3,117,0.4903000001,"Left",1,1,0,100,"Left","NoStop",11,252
3,118,0.3514,"Right",1,1,0,100,"Right","NoStop",11,252
3,119,0.2562,"Right",1,1,0,100,"Right","NoStop",11,252
3,120,0.2460999999,"Right",1,1,0,100,"Right","NoStop",11,252
3,121,1.0959,"Right",1,1,0,100,"Right","NoStop",11,252
3,122,0.24,"Right",1,1,0,100,"Right","NoStop",11,252
3,123,0.2343,"Right",1,1,0,100,"Right","NoStop",11,252
3,124,0.3414,"Left",1,0,1,100,"NoGo","Stop",11,252
3,125,0.3916,"Right",1,1,0,50,"Right","NoStop",11,252
3,126,0.3303000001,"Right",1,1,0,50,"Right","NoStop",11,252
3,127,0.4526999999,"Left",1,1,0,50,"Left","NoStop",11,252
3,128,0.335,"Right",1,1,0,50,"Right","NoStop",11,252
3,129,0.3271,"Left",1,1,0,50,"Left","NoStop",11,252
3,130,1.449283,"NoGo",NA,1,0,50,"NoGo","Stop",11,252
3,131,0.3287,"Left",1,1,0,100,"Left","NoStop",11,252
3,132,0.2836,"Left",1,1,0,100,"Left","NoStop",11,252
3,133,1.399487,"NoGo",NA,1,0,100,"NoGo","Stop",11,252
3,134,0.2483000001,"Right",1,1,0,150,"Right","NoStop",11,252
3,135,0.2857,"Left",1,1,0,150,"Left","NoStop",11,252
3,136,0.2674000001,"Left",1,1,0,150,"Left","NoStop",11,252
3,137,0.3702,"Right",1,1,0,150,"Right","NoStop",11,252
3,138,0.2485,"Right",1,0,1,150,"NoGo","Stop",11,252
3,139,0.2945,"Right",1,1,0,100,"Right","NoStop",11,252
3,140,0.2712,"Left",1,1,0,100,"Left","NoStop",11,252
3,141,0.3516999999,"Right",1,1,0,100,"Right","NoStop",11,252
3,142,1.399534,"NoGo",NA,1,0,100,"NoGo","Stop",11,252
3,143,0.2339,"Right",1,1,0,150,"Right","NoStop",11,252
3,144,0.362,"Right",1,1,0,150,"Right","NoStop",11,252
3,145,0.2631,"Left",1,1,0,150,"Left","NoStop",11,252
3,146,0.3821,"Right",1,1,0,150,"Right","NoStop",11,252
3,147,0.3199,"Left",1,1,0,150,"Left","NoStop",11,252
3,148,0.2768000001,"Right",1,0,1,150,"NoGo","Stop",11,252
3,149,0.4161999999,"Right",1,1,0,100,"Right","NoStop",11,252
3,150,0.3576,"Left",1,1,0,100,"Left","NoStop",11,252
3,151,0.2954000001,"Right",1,1,0,100,"Right","NoStop",11,252
3,152,1.39934,"NoGo",NA,1,0,100,"NoGo","Stop",11,252
3,153,0.278,"Right",1,1,0,150,"Right","NoStop",11,252
3,154,0.3075,"Left",1,1,0,150,"Left","NoStop",11,252
3,155,0.1890999999,"Right",1,1,0,150,"Right","NoStop",11,252
3,156,0.1903,"Right",1,0,1,150,"NoGo","Stop",11,252
3,157,0.3301,"Left",1,1,0,100,"Left","NoStop",11,252
3,158,0.2927,"Left",1,1,0,100,"Left","NoStop",11,252
3,159,0.2829,"Left",1,1,0,100,"Left","NoStop",11,252
3,160,1.399552,"NoGo",NA,1,0,100,"NoGo","Stop",11,252
3,161,1.349103,"NoGo",NA,1,0,150,"NoGo","Stop",11,252
3,162,0.1596,"Right",1,1,0,200,"Right","NoStop",11,252
3,163,0.1643,"Right",1,0,1,200,"NoGo","Stop",11,252
3,164,1.349367,"NoGo",NA,1,0,150,"NoGo","Stop",11,252
3,165,0.2294,"Right",1,1,0,200,"Right","NoStop",11,252
3,166,1.299444,"NoGo",NA,1,0,200,"NoGo","Stop",11,252
3,167,0.1775,"Right",1,0,1,250,"NoGo","Stop",11,252
3,168,0.2458000001,"Left",1,1,0,200,"Left","NoStop",11,252
3,169,0.2435,"Left",1,1,0,200,"Left","NoStop",11,252
3,170,0.2590999999,"Right",1,1,0,200,"Right","NoStop",11,252
3,171,0.3116,"Left",1,1,0,200,"Left","NoStop",11,252
3,172,0.1689,"Left",1,1,0,200,"Left","NoStop",11,252
3,173,0.1978,"Left",1,1,0,200,"Left","NoStop",11,252
3,174,0.73,"Left",1,1,0,200,"Left","NoStop",11,252
3,175,0.3402,"Left",1,1,0,200,"Left","NoStop",11,252
3,176,1.29917,"NoGo",NA,1,0,200,"NoGo","Stop",11,252
3,177,0.1762,"Left",1,1,0,250,"Left","NoStop",11,252
3,178,0.1336,"Left",1,1,0,250,"Left","NoStop",11,252
3,179,0.178,"Right",1,1,0,250,"Right","NoStop",11,252
3,180,0.1946999999,"Left",1,1,0,250,"Left","NoStop",11,252
3,181,0.1695,"Left",1,1,0,250,"Left","NoStop",11,252
3,182,0.1189000001,"Right",1,0,1,250,"NoGo","Stop",11,252
3,183,0.205,"Right",1,1,0,200,"Right","NoStop",11,252
3,184,0.1881999999,"Left",1,1,0,200,"Left","NoStop",11,252
3,185,0.1751999999,"Left",1,1,0,200,"Left","NoStop",11,252
3,186,0.184,"Right",1,1,0,200,"Right","NoStop",11,252
3,187,0.1677,"Right",1,0,1,200,"NoGo","Stop",11,252
3,188,0.2461999999,"Left",1,0,1,150,"NoGo","Stop",11,252
3,189,0.519,"Left",1,1,0,100,"Left","NoStop",11,252
3,190,1.399773,"NoGo",NA,1,0,100,"NoGo","Stop",11,252
3,191,0.2234,"Right",1,1,0,150,"Right","NoStop",11,252
3,192,1.349713,"NoGo",NA,1,0,150,"NoGo","Stop",11,252
3,193,0.2368,"Left",1,1,0,200,"Left","NoStop",11,252
3,194,0.1821,"Left",1,0,1,200,"NoGo","Stop",11,252
3,195,0.3250999999,"Right",1,1,0,150,"Right","NoStop",11,252
3,196,1.349748,"NoGo",NA,1,0,150,"NoGo","Stop",11,252
3,197,0.2161999999,"Left",1,1,0,200,"Left","NoStop",11,252
3,198,0.1799000001,"Left",1,0,1,200,"NoGo","Stop",11,252
3,199,0.3504,"Left",1,1,0,150,"Left","NoStop",11,252
3,200,0.204,"Left",1,1,0,150,"Left","NoStop",11,252
3,201,0.212,"Left",1,0,1,150,"NoGo","Stop",11,252
3,202,0.3285,"Right",1,0,1,100,"NoGo","Stop",11,252
3,203,0.3824,"Left",1,1,0,50,"Left","NoStop",11,252
3,204,0.3404,"Right",1,1,0,50,"Right","NoStop",11,252
3,205,1.449672,"NoGo",NA,1,0,50,"NoGo","Stop",11,252
3,206,0.2782,"Right",1,1,0,100,"Right","NoStop",11,252
3,207,0.3449,"Right",1,1,0,100,"Right","NoStop",11,252
3,208,0.3675999999,"Right",1,1,0,100,"Right","NoStop",11,252
3,209,1.399548,"NoGo",NA,1,0,100,"NoGo","Stop",11,252
3,210,0.2814,"Right",1,1,0,150,"Right","NoStop",11,252
3,211,1.349436,"NoGo",NA,1,0,150,"NoGo","Stop",11,252
3,212,0.382,"Left",1,1,0,200,"Left","NoStop",11,252
3,213,0.1772,"Right",1,1,0,200,"Right","NoStop",11,252
3,214,0.3045,"Left",1,1,0,200,"Left","NoStop",11,252
3,215,0.2001,"Right",1,1,0,200,"Right","NoStop",11,252
3,216,0.1979,"Left",1,1,0,200,"Left","NoStop",11,252
3,217,0.1555,"Left",1,0,1,200,"NoGo","Stop",11,252
3,218,0.2662,"Left",1,1,0,150,"Left","NoStop",11,252
3,219,0.1975,"Left",1,1,0,150,"Left","NoStop",11,252
3,220,0.2769,"Right",1,1,0,150,"Right","NoStop",11,252
3,221,1.350279,"NoGo",NA,1,0,150,"NoGo","Stop",11,252
3,222,0.2495,"Left",1,1,0,200,"Left","NoStop",11,252
3,223,0.1605,"Left",1,0,1,200,"NoGo","Stop",11,252
3,224,0.2485999999,"Left",1,1,0,150,"Left","NoStop",11,252
3,225,1.349489,"NoGo",NA,1,0,150,"NoGo","Stop",11,252
3,226,0.375,"Left",1,1,0,200,"Left","NoStop",11,252
3,227,0.2725999999,"Right",1,1,0,200,"Right","NoStop",11,252
3,228,0.4475,"Left",1,1,0,200,"Left","NoStop",11,252
3,229,1.299546,"NoGo",NA,1,0,200,"NoGo","Stop",11,252
3,230,0.1533000001,"Left",1,1,0,250,"Left","NoStop",11,252
3,231,0.3223000001,"Right",1,1,0,250,"Right","NoStop",11,252
3,232,1.249077,"NoGo",NA,0,1,250,"Right","NoStop",11,252
3,233,0.3238,"Right",1,1,0,250,"Right","NoStop",11,252
3,234,0.1836,"Right",1,0,1,250,"NoGo","Stop",11,252
3,235,0.2151,"Left",1,1,0,200,"Left","NoStop",11,252
3,236,0.2580999999,"Left",1,0,1,200,"NoGo","Stop",11,252
3,237,0.3557,"Right",1,1,0,150,"Right","NoStop",11,252
3,238,1.349095,"NoGo",NA,0,1,150,"Left","NoStop",11,252
3,239,0.2774,"Left",1,1,0,150,"Left","NoStop",11,252
3,240,0.6824,"Left",1,1,0,150,"Left","NoStop",11,252
16,1,0.5189,"Right",1,1,0,250,"Right","NoStop",18,277
16,2,0.0855,"Left",1,1,0,250,"Left","NoStop",18,277
16,3,0.1670999999,"Right",1,0,1,250,"NoGo","Stop",18,277
16,4,0.287,"Left",1,1,0,200,"Left","NoStop",18,277
16,5,0.1948,"Right",1,1,0,200,"Right","NoStop",18,277
16,6,0.2211,"Left",1,0,1,200,"NoGo","Stop",18,277
16,7,0.3271,"Left",1,1,0,150,"Left","NoStop",18,277
16,8,0.2584,"Left",1,1,0,150,"Left","NoStop",18,277
16,9,0.8118,"Right",1,0,1,150,"NoGo","Stop",18,277
16,10,0.6476,"Right",1,1,0,100,"Right","NoStop",18,277
16,11,0.3536999999,"Right",1,1,0,100,"Right","NoStop",18,277
16,12,1.3023,"Right",1,1,0,100,"Right","NoStop",18,277
16,13,0.2784000001,"Right",1,1,0,100,"Right","NoStop",18,277
16,14,1.401444,"NoGo",NA,1,0,100,"NoGo","Stop",18,277
16,15,1.351326,"NoGo",NA,1,0,150,"NoGo","Stop",18,277
16,16,0.2138,"Left",1,1,0,200,"Left","NoStop",18,277
16,17,1.301334,"NoGo",NA,1,0,200,"NoGo","Stop",18,277
16,18,0.1028,"Right",1,1,0,250,"Right","NoStop",18,277
16,19,0.3761,"Left",1,1,0,250,"Left","NoStop",18,277
16,20,0.4637,"Right",1,1,0,250,"Right","NoStop",18,277
16,21,1.251272,"NoGo",NA,1,0,250,"NoGo","Stop",18,277
16,22,0.2554000001,"Left",1,1,0,300,"Left","NoStop",18,277
16,23,1.201083,"NoGo",NA,1,0,300,"NoGo","Stop",18,277
16,24,0.1804,"Right",1,1,0,350,"Right","NoStop",18,277
16,25,0.541,"Right",1,1,0,350,"Right","NoStop",18,277
16,26,0.3057,"Right",1,1,0,350,"Right","NoStop",18,277
16,27,0.177,"Left",1,0,1,350,"NoGo","Stop",18,277
16,28,0.3408,"Right",1,1,0,300,"Right","NoStop",18,277
16,29,0.3873,"Right",1,1,0,300,"Right","NoStop",18,277
16,30,0.2596999999,"Right",1,1,0,300,"Right","NoStop",18,277
16,31,1.201228,"NoGo",NA,1,0,300,"NoGo","Stop",18,277
16,32,0.1295999999,"Right",1,1,0,350,"Right","NoStop",18,277
16,33,1.151172,"NoGo",NA,1,0,350,"NoGo","Stop",18,277
16,34,0.002299999952,"Right",1,1,0,400,"Right","NoStop",18,277
16,35,0.3918,"Left",1,1,0,400,"Left","NoStop",18,277
16,36,0.1806,"Right",1,0,1,400,"NoGo","Stop",18,277
16,37,0.5614,"Left",1,1,0,350,"Left","NoStop",18,277
16,38,0.3956,"Left",1,1,0,350,"Left","NoStop",18,277
16,39,0.2446,"Left",1,1,0,350,"Left","NoStop",18,277
16,40,0.2479,"Right",1,0,1,350,"NoGo","Stop",18,277
16,41,1.201315,"NoGo",NA,1,0,300,"NoGo","Stop",18,277
16,42,0.1141999999,"Right",1,0,1,350,"NoGo","Stop",18,277
16,43,0.5471999999,"Left",1,1,0,300,"Left","NoStop",18,277
16,44,0.5364,"Left",1,1,0,300,"Left","NoStop",18,277
16,45,0.4830999999,"Left",1,1,0,300,"Left","NoStop",18,277
16,46,0.472,"Left",1,1,0,300,"Left","NoStop",18,277
16,47,0.2295,"Right",1,0,1,300,"NoGo","Stop",18,277
16,48,1.251288,"NoGo",NA,1,0,250,"NoGo","Stop",18,277
16,49,0.3708000001,"Left",1,1,0,300,"Left","NoStop",18,277
16,50,0.3901,"Left",1,1,0,300,"Left","NoStop",18,277
16,51,0.4154,"Right",1,1,0,300,"Right","NoStop",18,277
16,52,0.9115,"Right",1,1,0,300,"Right","NoStop",18,277
16,53,0.4137,"Left",1,1,0,300,"Left","NoStop",18,277
16,54,0.3809,"Left",1,1,0,300,"Left","NoStop",18,277
16,55,0.5382,"Left",1,1,0,300,"Left","NoStop",18,277
16,56,0.0805,"Right",1,0,1,300,"NoGo","Stop",18,277
16,57,1.251237,"NoGo",NA,1,0,250,"NoGo","Stop",18,277
16,58,0.9164,"Right",1,1,0,300,"Right","NoStop",18,277
16,59,1.201324,"NoGo",NA,0,1,300,"Right","NoStop",18,277
16,60,0.1029,"Right",1,1,0,300,"Right","NoStop",18,277
16,61,0.8116,"Right",1,1,0,300,"Right","NoStop",18,277
16,62,0.5046999999,"Right",1,1,0,300,"Right","NoStop",18,277
16,63,0.2164,"Right",1,1,0,300,"Right","NoStop",18,277
16,64,0.1479,"Left",1,1,0,300,"Left","NoStop",18,277
16,65,0.1476999999,"Right",1,1,0,300,"Right","NoStop",18,277
16,66,0.1183,"Right",1,1,0,300,"Right","NoStop",18,277
16,67,0.0735,"Right",1,1,0,300,"Right","NoStop",18,277
16,68,0.06239999998,"Right",1,0,1,300,"NoGo","Stop",18,277
16,69,0.3608000001,"Left",1,1,0,250,"Left","NoStop",18,277
16,70,0.2274,"Left",1,1,0,250,"Left","NoStop",18,277
16,71,0.5274,"Left",1,1,0,250,"Left","NoStop",18,277
16,72,0.2359,"Left",1,1,0,250,"Left","NoStop",18,277
16,73,0.2299,"Right",1,0,1,250,"NoGo","Stop",18,277
16,74,0.696,"Right",1,1,0,200,"Right","NoStop",18,277
16,75,0.196,"Left",1,0,1,200,"NoGo","Stop",18,277
16,76,1.351394,"NoGo",NA,1,0,150,"NoGo","Stop",18,277
16,77,1.301401,"NoGo",NA,1,0,200,"NoGo","Stop",18,277
16,78,1.251289,"NoGo",NA,1,0,250,"NoGo","Stop",18,277
16,79,0.2465,"Left",1,1,0,300,"Left","NoStop",18,277
16,80,0.3265,"Left",1,1,0,300,"Left","NoStop",18,277
16,81,0.3794,"Right",1,1,0,300,"Right","NoStop",18,277
16,82,0.4166999999,"Left",1,1,0,300,"Left","NoStop",18,277
16,83,0.3137,"Right",1,1,0,300,"Right","NoStop",18,277
16,84,0.08730000007,"Left",1,1,0,300,"Left","NoStop",18,277
16,85,0.1129,"Right",1,1,0,300,"Right","NoStop",18,277
16,86,0.083,"Left",1,0,1,300,"NoGo","Stop",18,277
16,87,1.251238,"NoGo",NA,1,0,250,"NoGo","Stop",18,277
16,88,0.3485,"Right",1,1,0,300,"Right","NoStop",18,277
16,89,0.4982,"Right",1,1,0,300,"Right","NoStop",18,277
16,90,0.3366,"Right",1,1,0,300,"Right","NoStop",18,277
16,91,0.117,"Right",1,1,0,300,"Right","NoStop",18,277
16,92,0.3984,"Left",1,1,0,300,"Left","NoStop",18,277
16,93,1.201103,"NoGo",NA,1,0,300,"NoGo","Stop",18,277
16,94,0.1646999999,"Left",1,0,1,350,"NoGo","Stop",18,277
16,95,0.7276999999,"Left",1,1,0,300,"Left","NoStop",18,277
16,96,0.5012,"Left",1,1,0,300,"Left","NoStop",18,277
16,97,1.201123,"NoGo",NA,1,0,300,"NoGo","Stop",18,277
16,98,0.1286,"Right",1,1,0,350,"Right","NoStop",18,277
16,99,0.3537,"Right",1,1,0,350,"Right","NoStop",18,277
16,100,0.1325,"Right",1,1,0,350,"Right","NoStop",18,277
16,101,0.3285,"Right",1,1,0,350,"Right","NoStop",18,277
16,102,0.09510000002,"Left",1,1,0,350,"Left","NoStop",18,277
16,103,0.2462,"Left",1,0,1,350,"NoGo","Stop",18,277
16,104,0.3175,"Right",1,1,0,300,"Right","NoStop",18,277
16,105,0.5604,"Left",1,1,0,300,"Left","NoStop",18,277
16,106,0.5010999999,"Left",1,1,0,300,"Left","NoStop",18,277
16,107,0.6263000001,"Left",1,1,0,300,"Left","NoStop",18,277
16,108,0.4324,"Right",1,1,0,300,"Right","NoStop",18,277
16,109,1.201197,"NoGo",NA,1,0,300,"NoGo","Stop",18,277
16,110,0.2243,"Right",1,1,0,350,"Right","NoStop",18,277
16,111,0.1785,"Left",1,1,0,350,"Left","NoStop",18,277
16,112,0.3316999999,"Right",1,1,0,350,"Right","NoStop",18,277
16,113,0.2103000001,"Left",1,0,1,350,"NoGo","Stop",18,277
16,114,0.3971,"Right",1,1,0,300,"Right","NoStop",18,277
16,115,0.261,"Left",1,1,0,300,"Left","NoStop",18,277
16,116,0.6798,"Left",1,1,0,300,"Left","NoStop",18,277
16,117,0.4465,"Left",1,1,0,300,"Left","NoStop",18,277
16,118,0.2592,"Right",1,1,0,300,"Right","NoStop",18,277
16,119,0.235,"Right",1,1,0,300,"Right","NoStop",18,277
16,120,0.2655,"Left",1,1,0,300,"Left","NoStop",18,277
16,121,0.3313,"Right",1,1,0,300,"Right","NoStop",18,277
16,122,0.2651,"Right",1,1,0,300,"Right","NoStop",18,277
16,123,1.201105,"NoGo",NA,1,0,300,"NoGo","Stop",18,277
16,124,0.1231,"Left",1,1,0,350,"Left","NoStop",18,277
16,125,0.3811,"Right",1,1,0,350,"Right","NoStop",18,277
16,126,0.1814,"Left",1,1,0,350,"Left","NoStop",18,277
16,127,0.08079999995,"Right",1,1,0,350,"Right","NoStop",18,277
16,128,0.2905,"Left",1,1,0,350,"Left","NoStop",18,277
16,129,0.8242,"Left",1,1,0,350,"Left","NoStop",18,277
16,130,0.08570000005,"Left",1,1,0,350,"Left","NoStop",18,277
16,131,0.1143,"Left",1,0,1,350,"NoGo","Stop",18,277
16,132,0.1929000001,"Right",1,0,1,300,"NoGo","Stop",18,277
16,133,0.4196,"Right",1,1,0,250,"Right","NoStop",18,277
16,134,0.3158,"Left",1,1,0,250,"Left","NoStop",18,277
16,135,0.4285,"Right",1,1,0,250,"Right","NoStop",18,277
16,136,1.251316,"NoGo",NA,1,0,250,"NoGo","Stop",18,277
16,137,0.3531999999,"Left",1,1,0,300,"Left","NoStop",18,277
16,138,0.4143,"Right",1,1,0,300,"Right","NoStop",18,277
16,139,1.201204,"NoGo",NA,1,0,300,"NoGo","Stop",18,277
16,140,0.266,"Left",1,1,0,350,"Left","NoStop",18,277
16,141,1.151239,"NoGo",NA,1,0,350,"NoGo","Stop",18,277
16,142,1.100943,"NoGo",NA,1,0,400,"NoGo","Stop",18,277
16,143,0.1655,"Right",1,1,0,450,"Right","NoStop",18,277
16,144,0.4221999999,"Left",1,1,0,450,"Left","NoStop",18,277
16,145,0.3522,"Left",1,1,0,450,"Left","NoStop",18,277
16,146,0.3066999999,"Left",1,1,0,450,"Left","NoStop",18,277
16,147,0.3572,"Left",1,1,0,450,"Left","NoStop",18,277
16,148,0.2674,"Right",1,1,0,450,"Right","NoStop",18,277
16,149,0.1643000001,"Left",1,1,0,450,"Left","NoStop",18,277
16,150,0.0275,"Left",1,0,1,450,"NoGo","Stop",18,277
16,151,0.2302,"Left",1,1,0,400,"Left","NoStop",18,277
16,152,0.1898,"Left",1,1,0,400,"Left","NoStop",18,277
16,153,0.3156,"Left",1,1,0,400,"Left","NoStop",18,277
16,154,0.3057,"Right",1,1,0,400,"Right","NoStop",18,277
16,155,0.2475,"Left",1,1,0,400,"Left","NoStop",18,277
16,156,0.1999,"Left",1,0,1,400,"NoGo","Stop",18,277
16,157,0.4956,"Left",1,1,0,350,"Left","NoStop",18,277
16,158,0.061,"Right",1,1,0,350,"Right","NoStop",18,277
16,159,0.188,"Left",1,0,1,350,"NoGo","Stop",18,277
16,160,0.2129,"Left",1,1,0,300,"Left","NoStop",18,277
16,161,0.5103,"Left",1,1,0,300,"Left","NoStop",18,277
16,162,0.3621999999,"Right",1,1,0,300,"Right","NoStop",18,277
16,163,0.2565,"Right",1,1,0,300,"Right","NoStop",18,277
16,164,0.3845,"Left",1,1,0,300,"Left","NoStop",18,277
16,165,0.2401,"Left",1,1,0,300,"Left","NoStop",18,277
16,166,0.1105,"Left",1,1,0,300,"Left","NoStop",18,277
16,167,0.1289,"Left",1,1,0,300,"Left","NoStop",18,277
16,168,0.2316,"Right",1,1,0,300,"Right","NoStop",18,277
16,169,0.07879999995,"Left",1,0,1,300,"Right","NoStop",18,277
16,170,0.2002,"Right",1,1,0,300,"Right","NoStop",18,277
16,171,0.1786,"Right",1,1,0,300,"Right","NoStop",18,277
16,172,0.2483000001,"Right",1,1,0,300,"Right","NoStop",18,277
16,173,0.1486,"Left",1,1,0,300,"Left","NoStop",18,277
16,174,0.09839999998,"Right",1,1,0,300,"Right","NoStop",18,277
16,175,0.07089999998,"Right",1,1,0,300,"Right","NoStop",18,277
16,176,0.04389999998,"Left",1,1,0,300,"Left","NoStop",18,277
16,177,0.04910000002,"Right",1,0,1,300,"NoGo","Stop",18,277
16,178,0.5536,"Left",1,1,0,250,"Left","NoStop",18,277
16,179,0.2045,"Left",1,1,0,250,"Left","NoStop",18,277
16,180,0.1902,"Right",1,1,0,250,"Right","NoStop",18,277
16,181,0.6145999999,"Right",1,1,0,250,"Right","NoStop",18,277
16,182,1.25131,"NoGo",NA,1,0,250,"NoGo","Stop",18,277
16,183,0.4890999999,"Left",1,1,0,300,"Left","NoStop",18,277
16,184,0.3603000001,"Right",1,1,0,300,"Right","NoStop",18,277
16,185,0.3059,"Left",1,1,0,300,"Left","NoStop",18,277
16,186,1.201103,"NoGo",NA,1,0,300,"NoGo","Stop",18,277
16,187,0.2147,"Left",1,0,1,350,"NoGo","Stop",18,277
16,188,0.1821999999,"Right",1,1,0,300,"Right","NoStop",18,277
16,189,1.201276,"NoGo",NA,1,0,300,"NoGo","Stop",18,277
16,190,0.2176999999,"Right",1,1,0,350,"Right","NoStop",18,277
16,191,1.15112,"NoGo",NA,1,0,350,"NoGo","Stop",18,277
16,192,0.3064,"Right",1,1,0,400,"Right","NoStop",18,277
16,193,0.3719,"Right",1,1,0,400,"Right","NoStop",18,277
16,194,0.2991,"Right",1,0,1,400,"NoGo","Stop",18,277
16,195,0.1824,"Right",1,1,0,350,"Right","NoStop",18,277
16,196,0.01919999993,"Right",1,1,0,350,"Right","NoStop",18,277
16,197,0.3215,"Right",1,0,1,350,"NoGo","Stop",18,277
16,198,0.06810000002,"Right",1,1,0,300,"Right","NoStop",18,277
16,199,0.03680000007,"Right",1,1,0,300,"Right","NoStop",18,277
16,200,0.01739999998,"Right",1,1,0,300,"Right","NoStop",18,277
16,201,0.2129,"Left",1,1,0,300,"Left","NoStop",18,277
16,202,0.07739999998,"Right",1,1,0,300,"Right","NoStop",18,277
16,203,0.1521,"Left",1,1,0,300,"Left","NoStop",18,277
16,204,0.1742,"Left",1,1,0,300,"Left","NoStop",18,277
16,205,0.02180000007,"Right",1,1,0,300,"Right","NoStop",18,277
16,206,0.2298,"Left",1,1,0,300,"Left","NoStop",18,277
16,207,0.2286,"Left",1,1,0,300,"Left","NoStop",18,277
16,208,0.1322,"Left",1,1,0,300,"Left","NoStop",18,277
16,209,0.1681,"Left",1,1,0,300,"Left","NoStop",18,277
16,210,0.09970000005,"Left",1,1,0,300,"Left","NoStop",18,277
16,211,0.1094,"Right",1,1,0,300,"Right","NoStop",18,277
16,212,0.1259,"Right",1,1,0,300,"Right","NoStop",18,277
16,213,0.002899999976,"Left",1,1,0,300,"Left","NoStop",18,277
16,214,0.1341,"Left",1,1,0,300,"Left","NoStop",18,277
16,215,0.0615999999,"Left",1,1,0,300,"Left","NoStop",18,277
16,216,0.1553,"Right",1,1,0,300,"Right","NoStop",18,277
16,217,0.101,"Right",1,0,1,300,"NoGo","Stop",18,277
16,218,0.1829,"Left",1,0,1,250,"NoGo","Stop",18,277
16,219,0.4593,"Right",1,1,0,200,"Right","NoStop",18,277
16,220,0.1809,"Right",1,1,0,200,"Right","NoStop",18,277
16,221,0.2524,"Right",1,1,0,200,"Right","NoStop",18,277
16,222,0.2188000001,"Left",1,1,0,200,"Left","NoStop",18,277
16,223,0.1804,"Left",1,1,0,200,"Left","NoStop",18,277
16,224,0.1515,"Left",1,0,1,200,"NoGo","Stop",18,277
16,225,1.351241,"NoGo",NA,1,0,150,"NoGo","Stop",18,277
16,226,0.1789,"Right",1,1,0,200,"Right","NoStop",18,277
16,227,0.3751,"Right",1,0,1,200,"NoGo","Stop",18,277
16,228,1.35135,"NoGo",NA,1,0,150,"NoGo","Stop",18,277
16,229,0.3785,"Left",1,1,0,200,"Left","NoStop",18,277
16,230,0.4295,"Left",1,1,0,200,"Left","NoStop",18,277
16,231,0.3410999999,"Right",1,1,0,200,"Right","NoStop",18,277
16,232,0.4356,"Left",1,1,0,200,"Left","NoStop",18,277
16,233,0.3619,"Left",1,1,0,200,"Left","NoStop",18,277
16,234,0.2959,"Left",1,1,0,200,"Left","NoStop",18,277
16,235,0.2526,"Left",1,1,0,200,"Left","NoStop",18,277
16,236,0.2435,"Right",1,1,0,200,"Right","NoStop",18,277
16,237,1.301288,"NoGo",NA,1,0,200,"NoGo","Stop",18,277
16,238,0.3458,"Right",1,1,0,250,"Right","NoStop",18,277
16,239,1.251244,"NoGo",NA,1,0,250,"NoGo","Stop",18,277
16,240,1.2012,"NoGo",NA,1,0,300,"NoGo","Stop",18,277
9,1,0.109,"Right",1,1,0,250,"Right","NoStop",6,265
9,2,0.1327,"Right",1,1,0,250,"Right","NoStop",6,265
9,3,0.1472,"Right",1,1,0,250,"Right","NoStop",6,265
9,4,0.2159,"Left",1,0,1,250,"NoGo","Stop",6,265
9,5,0.1967,"Left",1,1,0,200,"Left","NoStop",6,265
9,6,0.3029,"Right",1,1,0,200,"Right","NoStop",6,265
9,7,0.2215,"Right",1,0,1,200,"NoGo","Stop",6,265
9,8,0.3172,"Left",1,1,0,150,"Left","NoStop",6,265
9,9,0.4998,"Left",1,1,0,150,"Left","NoStop",6,265
9,10,1.349712,"NoGo",NA,1,0,150,"NoGo","Stop",6,265
9,11,0.2294,"Right",1,0,1,200,"NoGo","Stop",6,265
9,12,0.2444,"Left",1,1,0,150,"Left","NoStop",6,265
9,13,0.3879,"Right",1,1,0,150,"Right","NoStop",6,265
9,14,0.2181,"Right",1,1,0,150,"Right","NoStop",6,265
9,15,0.2024,"Right",1,1,0,150,"Right","NoStop",6,265
9,16,0.2326,"Right",1,1,0,150,"Right","NoStop",6,265
9,17,0.2122,"Right",1,0,1,150,"NoGo","Stop",6,265
9,18,0.4962,"Right",1,1,0,100,"Right","NoStop",6,265
9,19,0.2992,"Left",1,1,0,100,"Left","NoStop",6,265
9,20,0.3246,"Left",1,1,0,100,"Left","NoStop",6,265
9,21,0.3905,"Right",1,1,0,100,"Right","NoStop",6,265
9,22,0.3139,"Left",1,1,0,100,"Left","NoStop",6,265
9,23,0.27,"Right",1,1,0,100,"Right","NoStop",6,265
9,24,1.399814,"NoGo",NA,1,0,100,"NoGo","Stop",6,265
9,25,0.2102,"Right",1,0,1,150,"NoGo","Stop",6,265
9,26,0.5539,"Right",1,1,0,100,"Right","NoStop",6,265
9,27,0.3156,"Left",1,1,0,100,"Left","NoStop",6,265
9,28,0.3144,"Left",1,1,0,100,"Left","NoStop",6,265
9,29,0.5817,"Left",1,1,0,100,"Left","NoStop",6,265
9,30,0.3097,"Left",1,1,0,100,"Left","NoStop",6,265
9,31,0.3931,"Left",1,1,0,100,"Left","NoStop",6,265
9,32,0.3454,"Right",1,1,0,100,"Right","NoStop",6,265
9,33,0.3195,"Left",1,1,0,100,"Left","NoStop",6,265
9,34,0.2972,"Right",1,1,0,100,"Right","NoStop",6,265
9,35,1.399739,"NoGo",NA,1,0,100,"NoGo","Stop",6,265
9,36,0.2448,"Left",1,1,0,150,"Left","NoStop",6,265
9,37,0.2285,"Left",1,0,1,150,"NoGo","Stop",6,265
9,38,0.3153,"Right",1,1,0,100,"Right","NoStop",6,265
9,39,0.2762,"Left",1,1,0,100,"Left","NoStop",6,265
9,40,0.2628,"Right",1,1,0,100,"Right","NoStop",6,265
9,41,1.399509,"NoGo",NA,1,0,100,"NoGo","Stop",6,265
9,42,0.3087,"Right",1,1,0,150,"Right","NoStop",6,265
9,43,0.1823,"Left",1,1,0,150,"Left","NoStop",6,265
9,44,0.2424,"Right",1,1,0,150,"Right","NoStop",6,265
9,45,0.256,"Right",1,1,0,150,"Right","NoStop",6,265
9,46,0.3849,"Left",1,1,0,150,"Left","NoStop",6,265
9,47,0.3137,"Right",1,1,0,150,"Right","NoStop",6,265
9,48,0.3243,"Left",1,1,0,150,"Left","NoStop",6,265
9,49,1.349493,"NoGo",NA,1,0,150,"NoGo","Stop",6,265
9,50,0.1658,"Left",1,0,1,200,"NoGo","Stop",6,265
9,51,0.3604,"Right",1,0,1,150,"NoGo","Stop",6,265
9,52,0.5031,"Right",1,1,0,100,"Right","NoStop",6,265
9,53,0.3034,"Left",1,1,0,100,"Left","NoStop",6,265
9,54,0.3321,"Right",1,1,0,100,"Right","NoStop",6,265
9,55,1.399743,"NoGo",NA,1,0,100,"NoGo","Stop",6,265
9,56,0.2303,"Left",1,1,0,150,"Left","NoStop",6,265
9,57,0.3077,"Right",1,1,0,150,"Right","NoStop",6,265
9,58,0.2327,"Right",1,1,0,150,"Right","NoStop",6,265
9,59,0.1819,"Right",1,1,0,150,"Right","NoStop",6,265
9,60,0.1898,"Right",1,1,0,150,"Right","NoStop",6,265
9,61,0.397,"Right",1,1,0,150,"Right","NoStop",6,265
9,62,0.1951,"Left",1,1,0,150,"Left","NoStop",6,265
9,63,0.1712,"Left",1,1,0,150,"Left","NoStop",6,265
9,64,0.134,"Left",1,1,0,150,"Left","NoStop",6,265
9,65,0.2096,"Left",1,1,0,150,"Left","NoStop",6,265
9,66,0.3975,"Left",1,0,1,150,"NoGo","Stop",6,265
9,67,0.4044,"Right",1,1,0,100,"Right","NoStop",6,265
9,68,1.399759,"NoGo",NA,1,0,100,"NoGo","Stop",6,265
9,69,0.195,"Right",1,0,1,150,"NoGo","Stop",6,265
9,70,1.399358,"NoGo",NA,1,0,100,"NoGo","Stop",6,265
9,71,0.2652,"Left",1,0,1,150,"NoGo","Stop",6,265
9,72,1.399684,"NoGo",NA,1,0,100,"NoGo","Stop",6,265
9,73,0.2829,"Right",1,1,0,150,"Right","NoStop",6,265
9,74,1.349581,"NoGo",NA,1,0,150,"NoGo","Stop",6,265
9,75,0.1987,"Left",1,1,0,200,"Left","NoStop",6,265
9,76,0.2137,"Right",1,1,0,200,"Right","NoStop",6,265
9,77,0.3611,"Right",1,1,0,200,"Right","NoStop",6,265
9,78,0.306,"Left",1,1,0,200,"Left","NoStop",6,265
9,79,0.1539,"Right",1,1,0,200,"Right","NoStop",6,265
9,80,0.1452,"Right",1,1,0,200,"Right","NoStop",6,265
9,81,0.1704,"Left",1,0,1,200,"NoGo","Stop",6,265
9,82,0.4269,"Left",1,1,0,150,"Left","NoStop",6,265
9,83,0.2639,"Right",1,0,1,150,"NoGo","Stop",6,265
9,84,0.3985,"Right",1,1,0,100,"Right","NoStop",6,265
9,85,0.2424,"Right",1,1,0,100,"Right","NoStop",6,265
9,86,0.2989,"Left",1,1,0,100,"Left","NoStop",6,265
9,87,0.2642,"Left",1,1,0,100,"Left","NoStop",6,265
9,88,0.3713,"Left",1,1,0,100,"Left","NoStop",6,265
9,89,0.2934,"Left",1,1,0,100,"Left","NoStop",6,265
9,90,0.2104,"Left",1,1,0,100,"Left","NoStop",6,265
9,91,0.3796,"Right",1,0,1,100,"NoGo","Stop",6,265
9,92,0.3506,"Left",1,1,0,50,"Left","NoStop",6,265
9,93,0.3382,"Left",1,1,0,50,"Left","NoStop",6,265
9,94,0.3324,"Right",1,1,0,50,"Right","NoStop",6,265
9,95,0.3053,"Left",1,1,0,50,"Left","NoStop",6,265
9,96,0.3708,"Right",1,1,0,50,"Right","NoStop",6,265
9,97,0.341,"Left",1,1,0,50,"Left","NoStop",6,265
9,98,0.3649,"Left",1,1,0,50,"Left","NoStop",6,265
9,99,0.3542,"Left",1,1,0,50,"Left","NoStop",6,265
9,100,0.293,"Left",1,1,0,50,"Left","NoStop",6,265
9,101,0.4072,"Left",1,1,0,50,"Left","NoStop",6,265
9,102,1.44962,"NoGo",NA,1,0,50,"NoGo","Stop",6,265
9,103,0.3579,"Right",1,1,0,100,"Right","NoStop",6,265
9,104,0.2849,"Left",1,1,0,100,"Left","NoStop",6,265
9,105,0.2619,"Right",1,1,0,100,"Right","NoStop",6,265
9,106,0.202,"Left",1,1,0,100,"Left","NoStop",6,265
9,107,0.2525,"Left",1,0,1,100,"Right","NoStop",6,265
9,108,1.399808,"NoGo",NA,1,0,100,"NoGo","Stop",6,265
9,109,1.349971,"NoGo",NA,1,0,150,"NoGo","Stop",6,265
9,110,1.299722,"NoGo",NA,1,0,200,"NoGo","Stop",6,265
9,111,0.1735,"Left",1,1,0,250,"Left","NoStop",6,265
9,112,0.1041,"Left",1,1,0,250,"Left","NoStop",6,265
9,113,0.06519999999,"Left",1,0,1,250,"NoGo","Stop",6,265
9,114,0.1725,"Left",1,0,1,200,"NoGo","Stop",6,265
9,115,0.5045,"Left",1,1,0,150,"Left","NoStop",6,265
9,116,0.2915,"Left",1,1,0,150,"Left","NoStop",6,265
9,117,1.349905,"NoGo",NA,1,0,150,"NoGo","Stop",6,265
9,118,0.1674,"Right",1,1,0,200,"Right","NoStop",6,265
9,119,0.1317,"Right",1,1,0,200,"Right","NoStop",6,265
9,120,0.1384,"Left",1,0,1,200,"Right","NoStop",6,265
9,121,0.7078,"Right",1,1,0,200,"Right","NoStop",6,265
9,122,1.299441,"NoGo",NA,0,1,200,"Left","NoStop",6,265
9,123,1.299642,"NoGo",NA,0,1,200,"Left","NoStop",6,265
9,124,1.300153,"NoGo",NA,0,1,200,"Left","NoStop",6,265
9,125,0.9085,"Left",1,1,0,200,"Left","NoStop",6,265
9,126,0.3803,"Left",1,1,0,200,"Left","NoStop",6,265
9,127,0.2379,"Right",1,1,0,200,"Right","NoStop",6,265
9,128,0.1446,"Right",1,1,0,200,"Right","NoStop",6,265
9,129,0.1127,"Right",1,0,1,200,"NoGo","Stop",6,265
9,130,0.2555,"Right",1,1,0,150,"Right","NoStop",6,265
9,131,0.2007,"Right",1,1,0,150,"Right","NoStop",6,265
9,132,0.2808,"Right",1,1,0,150,"Right","NoStop",6,265
9,133,0.3375,"Left",1,1,0,150,"Left","NoStop",6,265
9,134,0.2443,"Right",1,1,0,150,"Right","NoStop",6,265
9,135,0.263,"Right",1,0,1,150,"NoGo","Stop",6,265
9,136,0.2759,"Left",1,1,0,100,"Left","NoStop",6,265
9,137,0.3236,"Right",1,1,0,100,"Right","NoStop",6,265
9,138,0.375,"Left",1,1,0,100,"Left","NoStop",6,265
9,139,0.3019,"Right",1,1,0,100,"Right","NoStop",6,265
9,140,0.3171,"Left",1,1,0,100,"Left","NoStop",6,265
9,141,0.2844,"Right",1,1,0,100,"Right","NoStop",6,265
9,142,0.2886,"Right",1,1,0,100,"Right","NoStop",6,265
9,143,1.399623,"NoGo",NA,1,0,100,"NoGo","Stop",6,265
9,144,0.2069,"Left",1,0,1,150,"NoGo","Stop",6,265
9,145,1.399638,"NoGo",NA,1,0,100,"NoGo","Stop",6,265
9,146,0.2251,"Left",1,1,0,150,"Left","NoStop",6,265
9,147,0.27,"Right",1,1,0,150,"Right","NoStop",6,265
9,148,0.2386,"Right",1,1,0,150,"Right","NoStop",6,265
9,149,0.2147,"Right",1,1,0,150,"Right","NoStop",6,265
9,150,0.2321,"Right",1,1,0,150,"Right","NoStop",6,265
9,151,0.3679,"Left",1,1,0,150,"Left","NoStop",6,265
9,152,0.2436,"Left",1,1,0,150,"Left","NoStop",6,265
9,153,0.2649,"Right",1,1,0,150,"Right","NoStop",6,265
9,154,0.3557,"Right",1,1,0,150,"Right","NoStop",6,265
9,155,0.1961,"Right",1,0,1,150,"NoGo","Stop",6,265
9,156,0.4965,"Right",1,1,0,100,"Right","NoStop",6,265
9,157,1.399875,"NoGo",NA,1,0,100,"NoGo","Stop",6,265
9,158,1.349674,"NoGo",NA,1,0,150,"NoGo","Stop",6,265
9,159,0.1476,"Left",1,0,1,200,"NoGo","Stop",6,265
9,160,0.4322,"Left",1,1,0,150,"Left","NoStop",6,265
9,161,0.3324,"Right",1,1,0,150,"Right","NoStop",6,265
9,162,0.2914,"Left",1,1,0,150,"Left","NoStop",6,265
9,163,0.3222,"Right",1,0,1,150,"NoGo","Stop",6,265
9,164,0.3722,"Right",1,1,0,100,"Right","NoStop",6,265
9,165,0.5085,"Left",1,1,0,100,"Left","NoStop",6,265
9,166,0.2622,"Right",1,1,0,100,"Right","NoStop",6,265
9,167,1.40008,"NoGo",NA,1,0,100,"NoGo","Stop",6,265
9,168,0.2929,"Left",1,1,0,150,"Left","NoStop",6,265
9,169,0.2947,"Right",1,1,0,150,"Right","NoStop",6,265
9,170,1.350127,"NoGo",NA,1,0,150,"NoGo","Stop",6,265
9,171,0.2132,"Left",1,1,0,200,"Left","NoStop",6,265
9,172,0.2097,"Right",1,1,0,200,"Right","NoStop",6,265
9,173,0.3041,"Left",1,1,0,200,"Left","NoStop",6,265
9,174,0.2694,"Left",1,1,0,200,"Left","NoStop",6,265
9,175,0.4129,"Right",1,1,0,200,"Right","NoStop",6,265
9,176,0.2689,"Right",1,1,0,200,"Right","NoStop",6,265
9,177,0.1871,"Left",1,0,1,200,"NoGo","Stop",6,265
9,178,0.3087,"Left",1,1,0,150,"Left","NoStop",6,265
9,179,0.3284,"Right",1,0,1,150,"NoGo","Stop",6,265
9,180,0.5599,"Left",1,1,0,100,"Left","NoStop",6,265
9,181,0.535,"Left",1,1,0,100,"Left","NoStop",6,265
9,182,0.3185,"Left",1,1,0,100,"Left","NoStop",6,265
9,183,0.2466,"Left",1,1,0,100,"Left","NoStop",6,265
9,184,1.399822,"NoGo",NA,1,0,100,"NoGo","Stop",6,265
9,185,0.28,"Left",1,1,0,150,"Left","NoStop",6,265
9,186,1.349243,"NoGo",NA,1,0,150,"NoGo","Stop",6,265
9,187,0.1363,"Left",1,1,0,200,"Left","NoStop",6,265
9,188,0.1844,"Left",1,1,0,200,"Left","NoStop",6,265
9,189,0.242,"Right",1,1,0,200,"Right","NoStop",6,265
9,190,0.1407,"Right",1,0,1,200,"NoGo","Stop",6,265
9,191,0.4195,"Right",1,1,0,150,"Right","NoStop",6,265
9,192,0.3209,"Left",1,1,0,150,"Left","NoStop",6,265
9,193,0.2673,"Right",1,1,0,150,"Right","NoStop",6,265
9,194,1.349703,"NoGo",NA,1,0,150,"NoGo","Stop",6,265
9,195,0.2914,"Right",1,1,0,200,"Right","NoStop",6,265
9,196,0.1712,"Left",1,0,1,200,"Right","NoStop",6,265
9,197,0.1813,"Right",1,1,0,200,"Right","NoStop",6,265
9,198,0.234,"Left",1,1,0,200,"Left","NoStop",6,265
9,199,0.2752,"Left",1,1,0,200,"Left","NoStop",6,265
9,200,0.1859,"Right",1,0,1,200,"NoGo","Stop",6,265
9,201,0.3793,"Right",1,1,0,150,"Right","NoStop",6,265
9,202,0.2474,"Right",1,1,0,150,"Right","NoStop",6,265
9,203,0.2323,"Right",1,1,0,150,"Right","NoStop",6,265
9,204,0.2342,"Right",1,1,0,150,"Right","NoStop",6,265
9,205,0.3167,"Left",1,1,0,150,"Left","NoStop",6,265
9,206,0.2773,"Left",1,1,0,150,"Left","NoStop",6,265
9,207,0.2877,"Right",1,1,0,150,"Right","NoStop",6,265
9,208,0.2802,"Left",1,1,0,150,"Left","NoStop",6,265
9,209,0.2471,"Right",1,1,0,150,"Right","NoStop",6,265
9,210,0.2508,"Right",1,1,0,150,"Right","NoStop",6,265
9,211,0.2693,"Left",1,0,1,150,"NoGo","Stop",6,265
9,212,0.3833,"Right",1,1,0,100,"Right","NoStop",6,265
9,213,0.3109,"Left",1,1,0,100,"Left","NoStop",6,265
9,214,0.3657,"Left",1,1,0,100,"Left","NoStop",6,265
9,215,0.5179,"Right",1,1,0,100,"Right","NoStop",6,265
9,216,1.400089,"NoGo",NA,1,0,100,"NoGo","Stop",6,265
9,217,1.349605,"NoGo",NA,1,0,150,"NoGo","Stop",6,265
9,218,1.300022,"NoGo",NA,1,0,200,"NoGo","Stop",6,265
9,219,0.2138,"Left",1,1,0,250,"Left","NoStop",6,265
9,220,0.08770000002,"Right",1,0,1,250,"NoGo","Stop",6,265
9,221,0.329,"Left",1,1,0,200,"Left","NoStop",6,265
9,222,0.1944,"Left",1,0,1,200,"NoGo","Stop",6,265
9,223,0.3734,"Left",1,1,0,150,"Left","NoStop",6,265
9,224,0.3446,"Left",1,1,0,150,"Left","NoStop",6,265
9,225,1.349525,"NoGo",NA,1,0,150,"NoGo","Stop",6,265
9,226,0.1715,"Left",1,1,0,200,"Left","NoStop",6,265
9,227,0.3149,"Left",1,1,0,200,"Left","NoStop",6,265
9,228,0.1911,"Left",1,0,1,200,"NoGo","Stop",6,265
9,229,0.3064,"Right",1,0,1,150,"NoGo","Stop",6,265
9,230,0.371,"Right",1,1,0,100,"Right","NoStop",6,265
9,231,0.2752,"Right",1,1,0,100,"Right","NoStop",6,265
9,232,0.3214,"Right",1,1,0,100,"Right","NoStop",6,265
9,233,0.2897,"Left",1,1,0,100,"Left","NoStop",6,265
9,234,0.3361,"Right",1,1,0,100,"Right","NoStop",6,265
9,235,0.4765,"Left",1,1,0,100,"Left","NoStop",6,265
9,236,0.3504,"Right",1,1,0,100,"Right","NoStop",6,265
9,237,1.399645,"NoGo",NA,1,0,100,"NoGo","Stop",6,265
9,238,0.2284,"Right",1,1,0,150,"Right","NoStop",6,265
9,239,0.2563,"Right",1,1,0,150,"Right","NoStop",6,265
9,240,0.3019,"Left",1,1,0,150,"Left","NoStop",6,265
39,1,0.1056,"Right",1,1,0,250,"Right","NoStop",7,253
39,2,0.08389999998,"Left",1,1,0,250,"Left","NoStop",7,253
39,3,1.250117,"NoGo",NA,1,0,250,"NoGo","Stop",7,253
39,4,1.200063,"NoGo",NA,1,0,300,"NoGo","Stop",7,253
39,5,1.150074,"NoGo",NA,1,0,350,"NoGo","Stop",7,253
39,6,1.100066,"NoGo",NA,1,0,400,"NoGo","Stop",7,253
39,7,0.3737,"Right",1,1,0,450,"Right","NoStop",7,253
39,8,0.133,"Left",1,1,0,450,"Left","NoStop",7,253
39,9,1.050045,"NoGo",NA,1,0,450,"NoGo","Stop",7,253
39,10,0.1912,"Right",1,1,0,500,"Right","NoStop",7,253
39,11,0.003900000036,"Right",1,0,1,500,"NoGo","Stop",7,253
39,12,0.3213,"Left",1,1,0,450,"Left","NoStop",7,253
39,13,0.4503,"Right",1,1,0,450,"Right","NoStop",7,253
39,14,0.4862,"Right",1,1,0,450,"Right","NoStop",7,253
39,15,0.089,"Left",1,1,0,450,"Left","NoStop",7,253
39,16,0.1151,"Left",1,1,0,450,"Left","NoStop",7,253
39,17,0.2129,"Left",1,0,1,450,"NoGo","Stop",7,253
39,18,0.4439,"Right",1,1,0,400,"Right","NoStop",7,253
39,19,0.211,"Left",1,0,1,400,"NoGo","Stop",7,253
39,20,0.8685,"Left",1,1,0,350,"Left","NoStop",7,253
39,21,0.2895,"Right",1,1,0,350,"Right","NoStop",7,253
39,22,0.3261,"Left",1,0,1,350,"Right","NoStop",7,253
39,23,0.1556,"Right",1,1,0,350,"Right","NoStop",7,253
39,24,0.1036,"Left",1,1,0,350,"Left","NoStop",7,253
39,25,0.2842,"Right",1,1,0,350,"Right","NoStop",7,253
39,26,0.2726,"Left",1,0,1,350,"NoGo","Stop",7,253
39,27,0.2772,"Right",1,1,0,300,"Right","NoStop",7,253
39,28,0.6064,"Right",1,1,0,300,"Right","NoStop",7,253
39,29,0.2421,"Left",1,1,0,300,"Left","NoStop",7,253
39,30,0.000899999976,"Right",1,1,0,300,"Right","NoStop",7,253
39,31,0.04089999998,"Left",1,1,0,300,"Left","NoStop",7,253
39,32,0.003599999964,"Right",1,0,1,300,"Left","NoStop",7,253
39,33,0.3278,"Left",1,1,0,300,"Left","NoStop",7,253
39,34,0.6061,"Left",1,1,0,300,"Left","NoStop",7,253
39,35,0.5623,"Right",1,1,0,300,"Right","NoStop",7,253
39,36,0.1196,"Left",1,0,1,300,"NoGo","Stop",7,253
39,37,0.4728,"Right",1,1,0,250,"Right","NoStop",7,253
39,38,0.3561,"Right",1,1,0,250,"Right","NoStop",7,253
39,39,1.250074,"NoGo",NA,1,0,250,"NoGo","Stop",7,253
39,40,0.2302,"Left",1,0,1,300,"NoGo","Stop",7,253
39,41,0.7545,"Left",1,1,0,250,"Left","NoStop",7,253
39,42,0.05810000002,"Right",1,1,0,250,"Right","NoStop",7,253
39,43,1.2501,"NoGo",NA,1,0,250,"NoGo","Stop",7,253
39,44,0.5126,"Left",1,1,0,300,"Left","NoStop",7,253
39,45,0.04670000005,"Right",1,0,1,300,"Left","NoStop",7,253
39,46,1.200064,"NoGo",NA,1,0,300,"NoGo","Stop",7,253
39,47,0.2673,"Right",1,1,0,350,"Right","NoStop",7,253
39,48,0.1856,"Left",1,1,0,350,"Left","NoStop",7,253
39,49,1.150048,"NoGo",NA,1,0,350,"NoGo","Stop",7,253
39,50,0.3657,"Left",1,1,0,400,"Left","NoStop",7,253
39,51,0.05630000001,"Right",1,1,0,400,"Right","NoStop",7,253
39,52,0.3903,"Right",1,1,0,400,"Right","NoStop",7,253
39,53,0.3664,"Right",1,1,0,400,"Right","NoStop",7,253
39,54,0.01539999998,"Left",1,1,0,400,"Left","NoStop",7,253
39,55,0.3033,"Right",1,1,0,400,"Right","NoStop",7,253
39,56,0.3071,"Left",1,0,1,400,"NoGo","Stop",7,253
39,57,0.057,"Right",1,1,0,350,"Right","NoStop",7,253
39,58,0.03230000001,"Right",1,1,0,350,"Right","NoStop",7,253
39,59,0.3939,"Left",1,1,0,350,"Left","NoStop",7,253
39,60,0.2435,"Left",1,0,1,350,"NoGo","Stop",7,253
39,61,0.7056,"Left",1,1,0,300,"Left","NoStop",7,253
39,62,0.1209,"Left",1,0,1,300,"NoGo","Stop",7,253
39,63,0.05889999998,"Right",1,0,1,250,"NoGo","Stop",7,253
39,64,0.3528,"Right",1,1,0,200,"Right","NoStop",7,253
39,65,0.075,"Left",1,1,0,200,"Left","NoStop",7,253
39,66,0.1277,"Right",1,1,0,200,"Right","NoStop",7,253
39,67,0.2354,"Right",1,1,0,200,"Right","NoStop",7,253
39,68,0.02590000004,"Right",1,0,1,200,"Left","NoStop",7,253
39,69,0.2174,"Left",1,1,0,200,"Left","NoStop",7,253
39,70,0.3123,"Left",1,1,0,200,"Left","NoStop",7,253
39,71,0.2996,"Left",1,1,0,200,"Left","NoStop",7,253
39,72,0.3679,"Left",1,0,1,200,"NoGo","Stop",7,253
39,73,0.5307,"Right",1,1,0,150,"Right","NoStop",7,253
39,74,0.2715,"Left",1,1,0,150,"Left","NoStop",7,253
39,75,0.1509,"Right",1,1,0,150,"Right","NoStop",7,253
39,76,0.5067,"Right",1,1,0,150,"Right","NoStop",7,253
39,77,0.2716,"Left",1,1,0,150,"Left","NoStop",7,253
39,78,0.1997,"Right",1,0,1,150,"NoGo","Stop",7,253
39,79,1.400136,"NoGo",NA,1,0,100,"NoGo","Stop",7,253
39,80,0.2928,"Right",1,1,0,150,"Right","NoStop",7,253
39,81,0.3399,"Left",1,1,0,150,"Left","NoStop",7,253
39,82,1.350066,"NoGo",NA,1,0,150,"NoGo","Stop",7,253
39,83,0.6904,"Right",1,1,0,200,"Right","NoStop",7,253
39,84,0.3028,"Left",1,1,0,200,"Left","NoStop",7,253
39,85,0.2418,"Left",1,0,1,200,"NoGo","Stop",7,253
39,86,1.350149,"NoGo",NA,1,0,150,"NoGo","Stop",7,253
39,87,0.9411,"Left",1,1,0,200,"Left","NoStop",7,253
39,88,0.3196,"Right",1,1,0,200,"Right","NoStop",7,253
39,89,0.6432,"Right",1,1,0,200,"Right","NoStop",7,253
39,90,1.300107,"NoGo",NA,0,1,200,"Right","NoStop",7,253
39,91,0.7893,"Left",1,1,0,200,"Left","NoStop",7,253
39,92,0.2219,"Left",1,1,0,200,"Left","NoStop",7,253
39,93,0.2287,"Right",1,1,0,200,"Right","NoStop",7,253
39,94,0.2354,"Left",1,0,1,200,"NoGo","Stop",7,253
39,95,0.4527,"Left",1,1,0,150,"Left","NoStop",7,253
39,96,0.2275,"Left",1,1,0,150,"Left","NoStop",7,253
39,97,0.2455,"Right",1,1,0,150,"Right","NoStop",7,253
39,98,0.2624,"Left",1,1,0,150,"Left","NoStop",7,253
39,99,0.229,"Right",1,0,1,150,"NoGo","Stop",7,253
39,100,0.6798,"Right",1,1,0,100,"Right","NoStop",7,253
39,101,0.7183,"Right",1,1,0,100,"Right","NoStop",7,253
39,102,0.2949,"Right",1,1,0,100,"Right","NoStop",7,253
39,103,0.337,"Left",1,1,0,100,"Left","NoStop",7,253
39,104,0.2461,"Left",1,1,0,100,"Left","NoStop",7,253
39,105,0.3361,"Left",1,1,0,100,"Left","NoStop",7,253
39,106,0.2238,"Right",1,0,1,100,"NoGo","Stop",7,253
39,107,1.450134,"NoGo",NA,1,0,50,"NoGo","Stop",7,253
39,108,0.4059,"Right",1,1,0,100,"Right","NoStop",7,253
39,109,0.4743,"Left",1,1,0,100,"Left","NoStop",7,253
39,110,0.3401,"Right",1,1,0,100,"Right","NoStop",7,253
39,111,1.400122,"NoGo",NA,1,0,100,"NoGo","Stop",7,253
39,112,0.2677,"Right",1,1,0,150,"Right","NoStop",7,253
39,113,0.2029,"Left",1,1,0,150,"Left","NoStop",7,253
39,114,0.4119,"Left",1,1,0,150,"Left","NoStop",7,253
39,115,0.3575,"Right",1,1,0,150,"Right","NoStop",7,253
39,116,0.2023,"Left",1,1,0,150,"Left","NoStop",7,253
39,117,0.1954,"Left",1,1,0,150,"Left","NoStop",7,253
39,118,0.2297,"Left",1,1,0,150,"Left","NoStop",7,253
39,119,0.2541,"Right",1,1,0,150,"Right","NoStop",7,253
39,120,0.1896,"Left",1,1,0,150,"Left","NoStop",7,253
39,121,0.9712,"Left",1,0,1,150,"NoGo","Stop",7,253
39,122,0.3214,"Right",1,1,0,100,"Right","NoStop",7,253
39,123,0.2879,"Right",1,1,0,100,"Right","NoStop",7,253
39,124,0.3597,"Left",1,1,0,100,"Left","NoStop",7,253
39,125,0.4714,"Right",1,1,0,100,"Right","NoStop",7,253
39,126,0.2808,"Right",1,0,1,100,"NoGo","Stop",7,253
39,127,0.3478,"Left",1,1,0,50,"Left","NoStop",7,253
39,128,0.4674,"Left",1,1,0,50,"Left","NoStop",7,253
39,129,0.4299,"Right",1,1,0,50,"Right","NoStop",7,253
39,130,0.7465,"Left",1,1,0,50,"Left","NoStop",7,253
39,131,0.5073,"Left",1,1,0,50,"Left","NoStop",7,253
39,132,0.3801,"Right",1,1,0,50,"Right","NoStop",7,253
39,133,0.2272,"Left",1,1,0,50,"Left","NoStop",7,253
39,134,1.450085,"NoGo",NA,1,0,50,"NoGo","Stop",7,253
39,135,0.2096,"Right",1,0,1,100,"NoGo","Stop",7,253
39,136,0.5681,"Right",1,1,0,50,"Right","NoStop",7,253
39,137,1.450037,"NoGo",NA,1,0,50,"NoGo","Stop",7,253
39,138,0.3211,"Right",1,1,0,100,"Right","NoStop",7,253
39,139,0.2872,"Right",1,1,0,100,"Right","NoStop",7,253
39,140,0.5832,"Left",1,1,0,100,"Left","NoStop",7,253
39,141,0.3901,"Right",1,1,0,100,"Right","NoStop",7,253
39,142,0.7372,"Left",1,1,0,100,"Left","NoStop",7,253
39,143,0.401,"Left",1,1,0,100,"Left","NoStop",7,253
39,144,0.4115,"Left",1,1,0,100,"Left","NoStop",7,253
39,145,1.400052,"NoGo",NA,1,0,100,"NoGo","Stop",7,253
39,146,0.5695,"Left",1,1,0,150,"Left","NoStop",7,253
39,147,1.350109,"NoGo",NA,1,0,150,"NoGo","Stop",7,253
39,148,0.2546,"Left",1,1,0,200,"Left","NoStop",7,253
39,149,0.4363,"Left",1,1,0,200,"Left","NoStop",7,253
39,150,1.300083,"NoGo",NA,1,0,200,"NoGo","Stop",7,253
39,151,0.2525,"Right",1,1,0,250,"Right","NoStop",7,253
39,152,1.25007,"NoGo",NA,1,0,250,"NoGo","Stop",7,253
39,153,0.3785,"Right",1,1,0,300,"Right","NoStop",7,253
39,154,0.3355,"Left",1,1,0,300,"Left","NoStop",7,253
39,155,0.087,"Right",1,1,0,300,"Right","NoStop",7,253
39,156,0.09480000001,"Right",1,1,0,300,"Right","NoStop",7,253
39,157,0.1193,"Right",1,1,0,300,"Right","NoStop",7,253
39,158,0.3351,"Left",1,1,0,300,"Left","NoStop",7,253
39,159,0.934,"Left",1,1,0,300,"Left","NoStop",7,253
39,160,0.08369999999,"Left",1,1,0,300,"Left","NoStop",7,253
39,161,0.1006,"Left",1,1,0,300,"Left","NoStop",7,253
39,162,0.08409999996,"Left",1,0,1,300,"NoGo","Stop",7,253
39,163,0.6472,"Left",1,1,0,250,"Left","NoStop",7,253
39,164,0.1073,"Right",1,0,1,250,"NoGo","Stop",7,253
39,165,0.5193,"Left",1,1,0,200,"Left","NoStop",7,253
39,166,0.2188,"Left",1,0,1,200,"NoGo","Stop",7,253
39,167,0.5319,"Right",1,1,0,150,"Right","NoStop",7,253
39,168,0.2953,"Right",1,1,0,150,"Right","NoStop",7,253
39,169,0.2306,"Right",1,1,0,150,"Right","NoStop",7,253
39,170,0.1668,"Right",1,1,0,150,"Right","NoStop",7,253
39,171,0.4815,"Left",1,1,0,150,"Left","NoStop",7,253
39,172,0.4798,"Left",1,1,0,150,"Left","NoStop",7,253
39,173,0.2225,"Right",1,1,0,150,"Right","NoStop",7,253
39,174,0.2953,"Left",1,1,0,150,"Left","NoStop",7,253
39,175,0.3501,"Left",1,1,0,150,"Left","NoStop",7,253
39,176,0.2656,"Right",1,1,0,150,"Right","NoStop",7,253
39,177,1.350099,"NoGo",NA,1,0,150,"NoGo","Stop",7,253
39,178,0.1948,"Left",1,1,0,200,"Left","NoStop",7,253
39,179,0.4758,"Right",1,1,0,200,"Right","NoStop",7,253
39,180,0.2005,"Right",1,1,0,200,"Right","NoStop",7,253
39,181,0.5568,"Right",1,1,0,200,"Right","NoStop",7,253
39,182,0.2785,"Right",1,1,0,200,"Right","NoStop",7,253
39,183,0.2676,"Left",1,0,1,200,"NoGo","Stop",7,253
39,184,0.419,"Right",1,1,0,150,"Right","NoStop",7,253
39,185,0.4517,"Left",1,1,0,150,"Left","NoStop",7,253
39,186,0.2597,"Left",1,1,0,150,"Left","NoStop",7,253
39,187,0.1399,"Right",1,0,1,150,"Left","NoStop",7,253
39,188,0.2245,"Right",1,1,0,150,"Right","NoStop",7,253
39,189,0.2898,"Right",1,1,0,150,"Right","NoStop",7,253
39,190,0.2401,"Right",1,1,0,150,"Right","NoStop",7,253
39,191,0.1927,"Right",1,1,0,150,"Right","NoStop",7,253
39,192,0.1626,"Left",1,0,1,150,"NoGo","Stop",7,253
39,193,0.4576,"Left",1,1,0,100,"Left","NoStop",7,253
39,194,0.2025,"Right",1,0,1,100,"Left","NoStop",7,253
39,195,0.3514,"Right",1,1,0,100,"Right","NoStop",7,253
39,196,0.5151,"Left",1,1,0,100,"Left","NoStop",7,253
39,197,0.2358,"Right",1,1,0,100,"Right","NoStop",7,253
39,198,0.4706,"Right",1,1,0,100,"Right","NoStop",7,253
39,199,0.558,"Left",1,1,0,100,"Left","NoStop",7,253
39,200,0.1724,"Right",1,1,0,100,"Right","NoStop",7,253
39,201,0.3313,"Right",1,1,0,100,"Right","NoStop",7,253
39,202,0.2173,"Right",1,0,1,100,"NoGo","Stop",7,253
39,203,0.3198,"Right",1,1,0,50,"Right","NoStop",7,253
39,204,0.3692,"Left",1,0,1,50,"NoGo","Stop",7,253
39,205,0.6005,"Left",1,1,0,50,"Left","NoStop",7,253
39,206,0.2859,"Right",1,1,0,50,"Right","NoStop",7,253
39,207,0.3044,"Right",1,1,0,50,"Right","NoStop",7,253
39,208,1.450082,"NoGo",NA,1,0,50,"NoGo","Stop",7,253
39,209,0.2034,"Left",1,1,0,100,"Left","NoStop",7,253
39,210,0.2798,"Right",1,1,0,100,"Right","NoStop",7,253
39,211,0.272,"Left",1,1,0,100,"Left","NoStop",7,253
39,212,1.400027,"NoGo",NA,1,0,100,"NoGo","Stop",7,253
39,213,0.3707,"Right",1,1,0,150,"Right","NoStop",7,253
39,214,0.2863,"Right",1,1,0,150,"Right","NoStop",7,253
39,215,0.3876,"Left",1,1,0,150,"Left","NoStop",7,253
39,216,0.3593,"Right",1,1,0,150,"Right","NoStop",7,253
39,217,1.350006,"NoGo",NA,1,0,150,"NoGo","Stop",7,253
39,218,0.3732,"Left",1,1,0,200,"Left","NoStop",7,253
39,219,0.3749,"Left",1,1,0,200,"Left","NoStop",7,253
39,220,0.6632,"Right",1,1,0,200,"Right","NoStop",7,253
39,221,1.300057,"NoGo",NA,1,0,200,"NoGo","Stop",7,253
39,222,0.1429,"Left",1,1,0,250,"Left","NoStop",7,253
39,223,0.2875,"Right",1,0,1,250,"NoGo","Stop",7,253
39,224,0.4526,"Right",1,1,0,200,"Right","NoStop",7,253
39,225,1.300043,"NoGo",NA,1,0,200,"NoGo","Stop",7,253
39,226,1.250091,"NoGo",NA,1,0,250,"NoGo","Stop",7,253
39,227,0.07780000001,"Left",1,1,0,300,"Left","NoStop",7,253
39,228,0.2148,"Right",1,0,1,300,"NoGo","Stop",7,253
39,229,1.25007,"NoGo",NA,1,0,250,"NoGo","Stop",7,253
39,230,1.200076,"NoGo",NA,1,0,300,"NoGo","Stop",7,253
39,231,0.1755,"Left",1,1,0,350,"Left","NoStop",7,253
39,232,0.2027,"Left",1,0,1,350,"NoGo","Stop",7,253
39,233,0.7517,"Left",1,1,0,300,"Left","NoStop",7,253
39,234,0.08490000004,"Right",1,1,0,300,"Right","NoStop",7,253
39,235,0.1649,"Right",1,0,1,300,"NoGo","Stop",7,253
39,236,0.3649,"Left",1,1,0,250,"Left","NoStop",7,253
39,237,0.1802,"Left",1,1,0,250,"Left","NoStop",7,253
39,238,0.162,"Left",1,1,0,250,"Left","NoStop",7,253
39,239,0.1449,"Left",1,0,1,250,"NoGo","Stop",7,253
39,240,0.5479,"Right",1,1,0,200,"Right","NoStop",7,253
7,1,0.1168,"Right",1,1,0,250,"Right","NoStop",22,169
7,2,0.08720000002,"Left",1,1,0,250,"Left","NoStop",22,169
7,3,1.250308,"NoGo",NA,1,0,250,"NoGo","Stop",22,169
7,4,0.1757,"Right",1,1,0,300,"Right","NoStop",22,169
7,5,0.2017,"Right",1,1,0,300,"Right","NoStop",22,169
7,6,0.2162,"Right",1,1,0,300,"Right","NoStop",22,169
7,7,0.2448,"Left",1,1,0,300,"Left","NoStop",22,169
7,8,0.1335,"Left",1,1,0,300,"Left","NoStop",22,169
7,9,0.03720000002,"Right",1,0,1,300,"NoGo","Stop",22,169
7,10,0.04129999998,"Left",1,1,0,250,"Left","NoStop",22,169
7,11,0.2045,"Left",1,1,0,250,"Left","NoStop",22,169
7,12,1.249408,"NoGo",NA,1,0,250,"NoGo","Stop",22,169
7,13,0.02120000002,"Left",1,1,0,300,"Left","NoStop",22,169
7,14,0.1298,"Left",1,1,0,300,"Left","NoStop",22,169
7,15,0.4629,"Right",1,1,0,300,"Right","NoStop",22,169
7,16,0.02309999999,"Left",1,1,0,300,"Left","NoStop",22,169
7,17,0.1083,"Left",1,1,0,300,"Left","NoStop",22,169
7,18,0.1842,"Right",1,0,1,300,"NoGo","Stop",22,169
7,19,0.2514,"Right",1,1,0,250,"Right","NoStop",22,169
7,20,0.3538,"Right",1,1,0,250,"Right","NoStop",22,169
7,21,1.249816,"NoGo",NA,1,0,250,"NoGo","Stop",22,169
7,22,0.1552,"Left",1,1,0,300,"Left","NoStop",22,169
7,23,0.264,"Right",1,1,0,300,"Right","NoStop",22,169
7,24,0.4725,"Left",1,1,0,300,"Left","NoStop",22,169
7,25,0.2949,"Left",1,1,0,300,"Left","NoStop",22,169
7,26,1.199849,"NoGo",NA,1,0,300,"NoGo","Stop",22,169
7,27,0.2214,"Right",1,1,0,350,"Right","NoStop",22,169
7,28,0.5147,"Left",1,1,0,350,"Left","NoStop",22,169
7,29,0.2113,"Left",1,1,0,350,"Left","NoStop",22,169
7,30,1.150285,"NoGo",NA,1,0,350,"NoGo","Stop",22,169
7,31,0.3347,"Right",1,1,0,400,"Right","NoStop",22,169
7,32,0.4667,"Left",1,1,0,400,"Left","NoStop",22,169
7,33,0.5172,"Right",1,1,0,400,"Right","NoStop",22,169
7,34,0.6124,"Right",1,1,0,400,"Right","NoStop",22,169
7,35,0.5706,"Right",1,1,0,400,"Right","NoStop",22,169
7,36,0.5049,"Right",1,1,0,400,"Right","NoStop",22,169
7,37,0.4973,"Left",1,1,0,400,"Left","NoStop",22,169
7,38,0.5625,"Left",1,1,0,400,"Left","NoStop",22,169
7,39,0.403,"Right",1,1,0,400,"Right","NoStop",22,169
7,40,0.2336,"Left",1,1,0,400,"Left","NoStop",22,169
7,41,0.2354,"Right",1,1,0,400,"Right","NoStop",22,169
7,42,0.4069,"Right",1,1,0,400,"Right","NoStop",22,169
7,43,1.099676,"NoGo",NA,1,0,400,"NoGo","Stop",22,169
7,44,0.1535,"Right",1,0,1,450,"NoGo","Stop",22,169
7,45,0.142,"Right",1,1,0,400,"Right","NoStop",22,169
7,46,0.1913,"Right",1,1,0,400,"Right","NoStop",22,169
7,47,0.4873,"Left",1,1,0,400,"Left","NoStop",22,169
7,48,1.100168,"NoGo",NA,1,0,400,"NoGo","Stop",22,169
7,49,0.438,"Left",1,1,0,450,"Left","NoStop",22,169
7,50,1.049995,"NoGo",NA,1,0,450,"NoGo","Stop",22,169
7,51,0.05040000001,"Right",1,1,0,500,"Right","NoStop",22,169
7,52,0.6713,"Right",1,1,0,500,"Right","NoStop",22,169
7,53,0.99984,"NoGo",NA,1,0,500,"NoGo","Stop",22,169
7,54,0.5535,"Right",1,1,0,550,"Right","NoStop",22,169
7,55,0.950001,"NoGo",NA,1,0,550,"NoGo","Stop",22,169
7,56,0.06,"Left",1,0,1,600,"NoGo","Stop",22,169
7,57,0.1413,"Right",1,1,0,550,"Right","NoStop",22,169
7,58,0.02779999998,"Right",1,0,1,550,"NoGo","Stop",22,169
7,59,0.4163,"Left",1,1,0,500,"Left","NoStop",22,169
7,60,0.4239,"Left",1,1,0,500,"Left","NoStop",22,169
7,61,0.4633,"Right",1,0,1,500,"NoGo","Stop",22,169
7,62,1.049826,"NoGo",NA,1,0,450,"NoGo","Stop",22,169
7,63,0.302,"Right",1,1,0,500,"Right","NoStop",22,169
7,64,1.000206,"NoGo",NA,1,0,500,"NoGo","Stop",22,169
7,65,0.2373,"Right",1,1,0,550,"Right","NoStop",22,169
7,66,0.429,"Right",1,1,0,550,"Right","NoStop",22,169
7,67,0.3705,"Left",1,1,0,550,"Left","NoStop",22,169
7,68,0.4213,"Left",1,1,0,550,"Left","NoStop",22,169
7,69,0.3177,"Right",1,1,0,550,"Right","NoStop",22,169
7,70,0.3782,"Left",1,0,1,550,"NoGo","Stop",22,169
7,71,0.3272,"Right",1,1,0,500,"Right","NoStop",22,169
7,72,0.2966,"Left",1,1,0,500,"Left","NoStop",22,169
7,73,0.1637,"Left",1,1,0,500,"Left","NoStop",22,169
7,74,0.3889,"Left",1,0,1,500,"NoGo","Stop",22,169
7,75,0.3546,"Left",1,1,0,450,"Left","NoStop",22,169
7,76,0.06219999999,"Right",1,1,0,450,"Right","NoStop",22,169
7,77,0.3664,"Right",1,1,0,450,"Right","NoStop",22,169
7,78,0.3117,"Right",1,0,1,450,"NoGo","Stop",22,169
7,79,0.2953,"Left",1,1,0,400,"Left","NoStop",22,169
7,80,0.3899,"Left",1,0,1,400,"NoGo","Stop",22,169
7,81,0.2675,"Right",1,1,0,350,"Right","NoStop",22,169
7,82,0.3304,"Left",1,0,1,350,"Right","NoStop",22,169
7,83,0.05060000002,"Left",1,1,0,350,"Left","NoStop",22,169
7,84,0.009199999988,"Left",1,1,0,350,"Left","NoStop",22,169
7,85,0.04830000001,"Left",1,1,0,350,"Left","NoStop",22,169
7,86,0.01909999999,"Left",1,1,0,350,"Left","NoStop",22,169
7,87,0.3439,"Left",1,1,0,350,"Left","NoStop",22,169
7,88,0.04180000001,"Right",1,1,0,350,"Right","NoStop",22,169
7,89,0.034,"Right",1,1,0,350,"Right","NoStop",22,169
7,90,0.02489999998,"Right",1,1,0,350,"Right","NoStop",22,169
7,91,0.2702,"Right",1,1,0,350,"Right","NoStop",22,169
7,92,0.2918,"Left",1,1,0,350,"Left","NoStop",22,169
7,93,0.2775,"Right",1,1,0,350,"Right","NoStop",22,169
7,94,0.005399999976,"Right",1,1,0,350,"Right","NoStop",22,169
7,95,0.000900000006,"Left",1,0,1,350,"NoGo","Stop",22,169
7,96,0.2628,"Right",1,0,1,300,"NoGo","Stop",22,169
7,97,0.09629999998,"Right",1,1,0,250,"Right","NoStop",22,169
7,98,0.1612,"Left",1,1,0,250,"Left","NoStop",22,169
7,99,0.49,"Right",1,1,0,250,"Right","NoStop",22,169
7,100,0.07230000001,"Left",1,0,1,250,"NoGo","Stop",22,169
7,101,0.0945,"Right",1,1,0,200,"Right","NoStop",22,169
7,102,0.1684,"Right",1,0,1,200,"NoGo","Stop",22,169
7,103,0.1728,"Left",1,1,0,150,"Left","NoStop",22,169
7,104,0.2281,"Left",1,1,0,150,"Left","NoStop",22,169
7,105,0.1787,"Right",1,1,0,150,"Right","NoStop",22,169
7,106,0.1683,"Left",1,1,0,150,"Left","NoStop",22,169
7,107,0.3287,"Left",1,1,0,150,"Left","NoStop",22,169
7,108,1.349859,"NoGo",NA,1,0,150,"NoGo","Stop",22,169
7,109,0.4497,"Left",1,1,0,200,"Left","NoStop",22,169
7,110,0.1392,"Right",1,1,0,200,"Right","NoStop",22,169
7,111,0.4007,"Left",1,1,0,200,"Left","NoStop",22,169
7,112,0.1193,"Right",1,1,0,200,"Right","NoStop",22,169
7,113,0.4458,"Left",1,1,0,200,"Left","NoStop",22,169
7,114,1.300102,"NoGo",NA,1,0,200,"NoGo","Stop",22,169
7,115,0.1608,"Left",1,1,0,250,"Left","NoStop",22,169
7,116,0.2591,"Left",1,1,0,250,"Left","NoStop",22,169
7,117,1.249926,"NoGo",NA,1,0,250,"NoGo","Stop",22,169
7,118,0.2748,"Left",1,1,0,300,"Left","NoStop",22,169
7,119,0.2653,"Right",1,1,0,300,"Right","NoStop",22,169
7,120,0.274,"Right",1,1,0,300,"Right","NoStop",22,169
7,121,0.09280000001,"Left",1,0,1,300,"NoGo","Stop",22,169
7,122,0.2091,"Left",1,1,0,250,"Left","NoStop",22,169
7,123,0.1236,"Left",1,1,0,250,"Left","NoStop",22,169
7,124,0.1133,"Right",1,1,0,250,"Right","NoStop",22,169
7,125,0.1007,"Left",1,1,0,250,"Left","NoStop",22,169
7,126,0.109,"Left",1,0,1,250,"NoGo","Stop",22,169
7,127,0.2187,"Right",1,1,0,200,"Right","NoStop",22,169
7,128,0.1458,"Left",1,0,1,200,"NoGo","Stop",22,169
7,129,0.1548,"Right",1,1,0,150,"Right","NoStop",22,169
7,130,0.4894,"Left",1,1,0,150,"Left","NoStop",22,169
7,131,0.4572,"Left",1,1,0,150,"Left","NoStop",22,169
7,132,0.307,"Left",1,1,0,150,"Left","NoStop",22,169
7,133,0.3292,"Right",1,1,0,150,"Right","NoStop",22,169
7,134,0.3136,"Right",1,1,0,150,"Right","NoStop",22,169
7,135,0.3478,"Left",1,1,0,150,"Left","NoStop",22,169
7,136,1.349836,"NoGo",NA,1,0,150,"NoGo","Stop",22,169
7,137,0.3196,"Left",1,1,0,200,"Left","NoStop",22,169
7,138,0.224,"Left",1,1,0,200,"Left","NoStop",22,169
7,139,1.299847,"NoGo",NA,1,0,200,"NoGo","Stop",22,169
7,140,0.1002,"Right",1,1,0,250,"Right","NoStop",22,169
7,141,0.3406,"Left",1,1,0,250,"Left","NoStop",22,169
7,142,0.3186,"Left",1,1,0,250,"Left","NoStop",22,169
7,143,0.1388,"Left",1,1,0,250,"Left","NoStop",22,169
7,144,0.1033,"Left",1,0,1,250,"NoGo","Stop",22,169
7,145,0.1529,"Left",1,1,0,200,"Left","NoStop",22,169
7,146,0.1937,"Right",1,0,1,200,"NoGo","Stop",22,169
7,147,0.5934,"Right",1,1,0,150,"Right","NoStop",22,169
7,148,1.349843,"NoGo",NA,1,0,150,"NoGo","Stop",22,169
7,149,1.299876,"NoGo",NA,1,0,200,"NoGo","Stop",22,169
7,150,0.4468,"Right",1,1,0,250,"Right","NoStop",22,169
7,151,0.3551,"Left",1,1,0,250,"Left","NoStop",22,169
7,152,0.3177,"Left",1,1,0,250,"Left","NoStop",22,169
7,153,0.2685,"Left",1,1,0,250,"Left","NoStop",22,169
7,154,1.249834,"NoGo",NA,1,0,250,"NoGo","Stop",22,169
7,155,0.1878,"Right",1,1,0,300,"Right","NoStop",22,169
7,156,0.1887,"Right",1,0,1,300,"NoGo","Stop",22,169
7,157,1.249889,"NoGo",NA,1,0,250,"NoGo","Stop",22,169
7,158,0.4295,"Right",1,1,0,300,"Right","NoStop",22,169
7,159,1.200633,"NoGo",NA,1,0,300,"NoGo","Stop",22,169
7,160,0.312,"Left",1,1,0,350,"Left","NoStop",22,169
7,161,0.009400000006,"Right",1,1,0,350,"Right","NoStop",22,169
7,162,0.4166,"Left",1,1,0,350,"Left","NoStop",22,169
7,163,0.474,"Left",1,1,0,350,"Left","NoStop",22,169
7,164,0.4293,"Right",1,1,0,350,"Right","NoStop",22,169
7,165,0.2039,"Left",1,1,0,350,"Left","NoStop",22,169
7,166,0.3226,"Right",1,1,0,350,"Right","NoStop",22,169
7,167,0.2695,"Left",1,0,1,350,"Right","NoStop",22,169
7,168,0.3059,"Left",1,1,0,350,"Left","NoStop",22,169
7,169,0.2912,"Right",1,1,0,350,"Right","NoStop",22,169
7,170,0.28,"Left",1,0,1,350,"NoGo","Stop",22,169
7,171,0.2642,"Right",1,1,0,300,"Right","NoStop",22,169
7,172,0.003199999988,"Left",1,0,1,300,"NoGo","Stop",22,169
7,173,0.1405,"Left",1,0,1,250,"NoGo","Stop",22,169
7,174,0.4181,"Left",1,1,0,200,"Left","NoStop",22,169
7,175,0.1905,"Left",1,1,0,200,"Left","NoStop",22,169
7,176,1.299815,"NoGo",NA,1,0,200,"NoGo","Stop",22,169
7,177,0.2735,"Right",1,1,0,250,"Right","NoStop",22,169
7,178,1.249851,"NoGo",NA,1,0,250,"NoGo","Stop",22,169
7,179,0.3371,"Right",1,1,0,300,"Right","NoStop",22,169
7,180,0.029,"Right",1,0,1,300,"NoGo","Stop",22,169
7,181,0.1363,"Left",1,1,0,250,"Left","NoStop",22,169
7,182,0.2551,"Right",1,1,0,250,"Right","NoStop",22,169
7,183,0.2335,"Right",1,1,0,250,"Right","NoStop",22,169
7,184,0.08780000001,"Right",1,1,0,250,"Right","NoStop",22,169
7,185,0.085,"Right",1,0,1,250,"NoGo","Stop",22,169
7,186,0.1713,"Left",1,1,0,200,"Left","NoStop",22,169
7,187,0.3082,"Left",1,1,0,200,"Left","NoStop",22,169
7,188,0.2008,"Left",1,1,0,200,"Left","NoStop",22,169
7,189,0.178,"Left",1,1,0,200,"Left","NoStop",22,169
7,190,0.1526,"Right",1,1,0,200,"Right","NoStop",22,169
7,191,0.1375,"Right",1,0,1,200,"NoGo","Stop",22,169
7,192,0.1793,"Left",1,0,1,150,"NoGo","Stop",22,169
7,193,0.2816,"Left",1,1,0,100,"Left","NoStop",22,169
7,194,0.1849,"Right",1,1,0,100,"Right","NoStop",22,169
7,195,0.3094,"Right",1,1,0,100,"Right","NoStop",22,169
7,196,0.2754,"Right",1,0,1,100,"NoGo","Stop",22,169
7,197,0.3549,"Right",1,1,0,50,"Right","NoStop",22,169
7,198,1.450066,"NoGo",NA,1,0,50,"NoGo","Stop",22,169
7,199,0.3685,"Right",1,1,0,100,"Right","NoStop",22,169
7,200,0.3046,"Right",1,1,0,100,"Right","NoStop",22,169
7,201,0.3744,"Left",1,1,0,100,"Left","NoStop",22,169
7,202,0.2568,"Right",1,1,0,100,"Right","NoStop",22,169
7,203,0.3443,"Right",1,1,0,100,"Right","NoStop",22,169
7,204,0.2745,"Left",1,1,0,100,"Left","NoStop",22,169
7,205,0.1944,"Right",1,1,0,100,"Right","NoStop",22,169
7,206,0.3109,"Right",1,1,0,100,"Right","NoStop",22,169
7,207,1.399612,"NoGo",NA,1,0,100,"NoGo","Stop",22,169
7,208,0.1655,"Right",1,1,0,150,"Right","NoStop",22,169
7,209,0.1648,"Right",1,1,0,150,"Right","NoStop",22,169
7,210,0.31,"Left",1,1,0,150,"Left","NoStop",22,169
7,211,0.3131,"Left",1,1,0,150,"Left","NoStop",22,169
7,212,0.247,"Left",1,1,0,150,"Left","NoStop",22,169
7,213,0.2328,"Right",1,1,0,150,"Right","NoStop",22,169
7,214,0.4115,"Left",1,1,0,150,"Left","NoStop",22,169
7,215,0.2294,"Left",1,1,0,150,"Left","NoStop",22,169
7,216,0.1804,"Right",1,1,0,150,"Right","NoStop",22,169
7,217,0.2026,"Left",1,0,1,150,"NoGo","Stop",22,169
7,218,0.4439,"Left",1,1,0,100,"Left","NoStop",22,169
7,219,0.2208,"Right",1,0,1,100,"NoGo","Stop",22,169
7,220,0.3668,"Right",1,1,0,50,"Right","NoStop",22,169
7,221,0.3705,"Right",1,1,0,50,"Right","NoStop",22,169
7,222,0.2585,"Right",1,1,0,50,"Right","NoStop",22,169
7,223,0.2711,"Right",1,1,0,50,"Right","NoStop",22,169
7,224,0.2533,"Right",1,1,0,50,"Right","NoStop",22,169
7,225,0.4793,"Left",1,1,0,50,"Left","NoStop",22,169
7,226,0.3389,"Left",1,1,0,50,"Left","NoStop",22,169
7,227,1.449616,"NoGo",NA,1,0,50,"NoGo","Stop",22,169
7,228,0.3726,"Left",1,1,0,100,"Left","NoStop",22,169
7,229,1.399621,"NoGo",NA,1,0,100,"NoGo","Stop",22,169
7,230,0.3062,"Left",1,1,0,150,"Left","NoStop",22,169
7,231,0.2055,"Left",1,1,0,150,"Left","NoStop",22,169
7,232,0.1837,"Left",1,1,0,150,"Left","NoStop",22,169
7,233,1.34954,"NoGo",NA,1,0,150,"NoGo","Stop",22,169
7,234,0.3388,"Right",1,1,0,200,"Right","NoStop",22,169
7,235,0.1917,"Right",1,1,0,200,"Right","NoStop",22,169
7,236,0.1922,"Left",1,1,0,200,"Left","NoStop",22,169
7,237,0.1631,"Right",1,1,0,200,"Right","NoStop",22,169
7,238,0.07889999998,"Left",1,1,0,200,"Left","NoStop",22,169
7,239,0.07990000001,"Right",1,1,0,200,"Right","NoStop",22,169
7,240,0.2389,"Right",1,0,1,200,"NoGo","Stop",22,169
23,1,0.1368,"Right",1,1,0,250,"Right","NoStop",28,172
23,2,0.1170999999,"Right",1,1,0,250,"Right","NoStop",28,172
23,3,0.1301000001,"Left",1,1,0,250,"Left","NoStop",28,172
23,4,0.3507,"Left",1,1,0,250,"Left","NoStop",28,172
23,5,0.1348,"Left",1,1,0,250,"Left","NoStop",28,172
23,6,0.3428,"Right",1,1,0,250,"Right","NoStop",28,172
23,7,0.1805,"Right",1,1,0,250,"Right","NoStop",28,172
23,8,0.1280999999,"Right",1,1,0,250,"Right","NoStop",28,172
23,9,0.1905,"Left",1,1,0,250,"Left","NoStop",28,172
23,10,0.1761000001,"Left",1,0,1,250,"NoGo","Stop",28,172
23,11,0.428,"Left",1,1,0,200,"Left","NoStop",28,172
23,12,0.3139000001,"Right",1,1,0,200,"Right","NoStop",28,172
23,13,0.1990999999,"Right",1,0,1,200,"NoGo","Stop",28,172
23,14,0.712,"Right",1,1,0,150,"Right","NoStop",28,172
23,15,0.4252,"Right",1,1,0,150,"Right","NoStop",28,172
23,16,1.349955,"NoGo",NA,1,0,150,"NoGo","Stop",28,172
23,17,0.2353,"Left",1,1,0,200,"Left","NoStop",28,172
23,18,1.300119,"NoGo",NA,1,0,200,"NoGo","Stop",28,172
23,19,0.356,"Left",1,1,0,250,"Left","NoStop",28,172
23,20,0.4183,"Left",1,1,0,250,"Left","NoStop",28,172
23,21,0.1915,"Right",1,1,0,250,"Right","NoStop",28,172
23,22,0.1958,"Right",1,1,0,250,"Right","NoStop",28,172
23,23,0.1342,"Right",1,1,0,250,"Right","NoStop",28,172
23,24,0.3547,"Left",1,1,0,250,"Left","NoStop",28,172
23,25,0.1983999999,"Right",1,1,0,250,"Right","NoStop",28,172
23,26,0.2314000001,"Right",1,1,0,250,"Right","NoStop",28,172
23,27,0.2053,"Left",1,1,0,250,"Left","NoStop",28,172
23,28,0.1628,"Right",1,1,0,250,"Right","NoStop",28,172
23,29,0.1733,"Left",1,0,1,250,"NoGo","Stop",28,172
23,30,0.1599000001,"Right",1,1,0,200,"Right","NoStop",28,172
23,31,1.299848,"NoGo",NA,1,0,200,"NoGo","Stop",28,172
23,32,0.3225999999,"Left",1,1,0,250,"Left","NoStop",28,172
23,33,0.4223999999,"Right",1,1,0,250,"Right","NoStop",28,172
23,34,0.1942,"Left",1,0,1,250,"NoGo","Stop",28,172
23,35,0.3785999999,"Left",1,1,0,200,"Left","NoStop",28,172
23,36,1.299913,"NoGo",NA,1,0,200,"NoGo","Stop",28,172
23,37,1.250095,"NoGo",NA,1,0,250,"NoGo","Stop",28,172
23,38,0.4005999999,"Right",1,0,1,300,"Left","NoStop",28,172
23,39,0.4249000001,"Left",1,1,0,300,"Left","NoStop",28,172
23,40,1.200363,"NoGo",NA,1,0,300,"NoGo","Stop",28,172
23,41,0.1866000001,"Right",1,1,0,350,"Right","NoStop",28,172
23,42,0.3035,"Left",1,1,0,350,"Left","NoStop",28,172
23,43,0.1912,"Left",1,1,0,350,"Left","NoStop",28,172
23,44,0.1503999999,"Left",1,1,0,350,"Left","NoStop",28,172
23,45,0.0600999999,"Right",1,1,0,350,"Right","NoStop",28,172
23,46,1.149897,"NoGo",NA,1,0,350,"NoGo","Stop",28,172
23,47,0.2292,"Left",1,0,1,400,"NoGo","Stop",28,172
23,48,0.4948000002,"Left",1,1,0,350,"Left","NoStop",28,172
23,49,1.150018,"NoGo",NA,1,0,350,"NoGo","Stop",28,172
23,50,0.4913,"Left",1,1,0,400,"Left","NoStop",28,172
23,51,1.100035,"NoGo",NA,1,0,400,"NoGo","Stop",28,172
23,52,1.049621,"NoGo",NA,1,0,450,"NoGo","Stop",28,172
23,53,0.3132,"Left",1,1,0,500,"Left","NoStop",28,172
23,54,0.4903000002,"Right",1,1,0,500,"Right","NoStop",28,172
23,55,1.000272,"NoGo",NA,1,0,500,"NoGo","Stop",28,172
23,56,0.1355999999,"Left",1,1,0,550,"Left","NoStop",28,172
23,57,0.94995,"NoGo",NA,1,0,550,"NoGo","Stop",28,172
23,58,0.07030000019,"Left",1,0,1,600,"NoGo","Stop",28,172
23,59,0.3588999999,"Left",1,1,0,550,"Left","NoStop",28,172
23,60,0.5493000002,"Left",1,1,0,550,"Left","NoStop",28,172
23,61,0.949824,"NoGo",NA,0,1,550,"Right","NoStop",28,172
23,62,0.2420999999,"Left",1,1,0,550,"Left","NoStop",28,172
23,63,0.4357,"Left",1,1,0,550,"Left","NoStop",28,172
23,64,0.02139999986,"Left",1,1,0,550,"Left","NoStop",28,172
23,65,0.4622,"Right",1,1,0,550,"Right","NoStop",28,172
23,66,0.4177,"Right",1,1,0,550,"Right","NoStop",28,172
23,67,0.4819000001,"Left",1,1,0,550,"Left","NoStop",28,172
23,68,0.4261000001,"Right",1,0,1,550,"NoGo","Stop",28,172
23,69,0.3893000002,"Left",1,1,0,500,"Left","NoStop",28,172
23,70,0.4605,"Left",1,1,0,500,"Left","NoStop",28,172
23,71,0.4901999998,"Left",1,1,0,500,"Left","NoStop",28,172
23,72,0.4100999999,"Right",1,1,0,500,"Right","NoStop",28,172
23,73,0.4868999999,"Right",1,0,1,500,"NoGo","Stop",28,172
23,74,0.2713000002,"Right",1,1,0,450,"Right","NoStop",28,172
23,75,0.06080000019,"Right",1,0,1,450,"NoGo","Stop",28,172
23,76,0.2065999999,"Right",1,1,0,400,"Right","NoStop",28,172
23,77,0.0780999999,"Right",1,0,1,400,"NoGo","Stop",28,172
23,78,0.2694000001,"Left",1,1,0,350,"Left","NoStop",28,172
23,79,0.1887,"Left",1,1,0,350,"Left","NoStop",28,172
23,80,1.149998,"NoGo",NA,1,0,350,"NoGo","Stop",28,172
23,81,1.099929,"NoGo",NA,1,0,400,"NoGo","Stop",28,172
23,82,0.3137,"Left",1,1,0,450,"Left","NoStop",28,172
23,83,0.2218000002,"Left",1,1,0,450,"Left","NoStop",28,172
23,84,0.4056000001,"Left",1,1,0,450,"Left","NoStop",28,172
23,85,0.1723,"Left",1,0,1,450,"NoGo","Stop",28,172
23,86,0.4405,"Left",1,1,0,400,"Left","NoStop",28,172
23,87,0.33,"Left",1,1,0,400,"Left","NoStop",28,172
23,88,0.349,"Right",1,1,0,400,"Right","NoStop",28,172
23,89,0.1483000002,"Left",1,1,0,400,"Left","NoStop",28,172
23,90,0.5937,"Right",1,1,0,400,"Right","NoStop",28,172
23,91,0.3726999998,"Right",1,1,0,400,"Right","NoStop",28,172
23,92,0.3066000001,"Right",1,1,0,400,"Right","NoStop",28,172
23,93,0.3938,"Left",1,1,0,400,"Left","NoStop",28,172
23,94,1.10006,"NoGo",NA,1,0,400,"NoGo","Stop",28,172
23,95,0.2055999999,"Left",1,1,0,450,"Left","NoStop",28,172
23,96,0.2680999999,"Left",1,1,0,450,"Left","NoStop",28,172
23,97,0.2648,"Left",1,0,1,450,"NoGo","Stop",28,172
23,98,1.099748,"NoGo",NA,1,0,400,"NoGo","Stop",28,172
23,99,0.1988999999,"Right",1,1,0,450,"Right","NoStop",28,172
23,100,0.2315,"Left",1,1,0,450,"Left","NoStop",28,172
23,101,0.2715,"Right",1,1,0,450,"Right","NoStop",28,172
23,102,0.4322,"Left",1,1,0,450,"Left","NoStop",28,172
23,103,0.3272,"Right",1,1,0,450,"Right","NoStop",28,172
23,104,0.3838,"Right",1,1,0,450,"Right","NoStop",28,172
23,105,0.3806999998,"Left",1,0,1,450,"NoGo","Stop",28,172
23,106,0.3675,"Right",1,1,0,400,"Right","NoStop",28,172
23,107,0.3706000001,"Left",1,1,0,400,"Left","NoStop",28,172
23,108,0.006599999905,"Right",1,1,0,400,"Right","NoStop",28,172
23,109,0.0870999999,"Left",1,0,1,400,"NoGo","Stop",28,172
23,110,0.0485,"Right",1,0,1,350,"NoGo","Stop",28,172
23,111,0.1114000001,"Right",1,0,1,300,"NoGo","Stop",28,172
23,112,1.249923,"NoGo",NA,1,0,250,"NoGo","Stop",28,172
23,113,0.3323,"Right",1,1,0,300,"Right","NoStop",28,172
23,114,0.3677,"Right",1,1,0,300,"Right","NoStop",28,172
23,115,0.2654000001,"Left",1,1,0,300,"Left","NoStop",28,172
23,116,0.01239999986,"Right",1,0,1,300,"NoGo","Stop",28,172
23,117,1.250389,"NoGo",NA,1,0,250,"NoGo","Stop",28,172
23,118,0.3256999998,"Left",1,1,0,300,"Left","NoStop",28,172
23,119,0.3990999999,"Left",1,1,0,300,"Left","NoStop",28,172
23,120,0.2884000001,"Right",1,1,0,300,"Right","NoStop",28,172
23,121,0.6695999999,"Left",1,1,0,300,"Left","NoStop",28,172
23,122,0.3096999998,"Right",1,1,0,300,"Right","NoStop",28,172
23,123,0.027,"Left",1,1,0,300,"Left","NoStop",28,172
23,124,0.1040999999,"Left",1,1,0,300,"Left","NoStop",28,172
23,125,0.09310000014,"Left",1,1,0,300,"Left","NoStop",28,172
23,126,0.107,"Right",1,1,0,300,"Right","NoStop",28,172
23,127,0.1027,"Right",1,1,0,300,"Right","NoStop",28,172
23,128,0.138,"Left",1,1,0,300,"Left","NoStop",28,172
23,129,0.08410000014,"Left",1,1,0,300,"Left","NoStop",28,172
23,130,0.019,"Left",1,0,1,300,"NoGo","Stop",28,172
23,131,0.2759000001,"Right",1,1,0,250,"Right","NoStop",28,172
23,132,0.4778,"Left",1,1,0,250,"Left","NoStop",28,172
23,133,1.249714,"NoGo",NA,1,0,250,"NoGo","Stop",28,172
23,134,1.200191,"NoGo",NA,1,0,300,"NoGo","Stop",28,172
23,135,0.5469000001,"Left",1,1,0,350,"Left","NoStop",28,172
23,136,0.2923,"Left",1,1,0,350,"Left","NoStop",28,172
23,137,0.03729999995,"Right",1,1,0,350,"Right","NoStop",28,172
23,138,0.007,"Right",1,1,0,350,"Right","NoStop",28,172
23,139,0.0404000001,"Right",1,0,1,350,"NoGo","Stop",28,172
23,140,0.1468,"Right",1,1,0,300,"Right","NoStop",28,172
23,141,0.02060000014,"Right",1,1,0,300,"Right","NoStop",28,172
23,142,0.0435999999,"Left",1,1,0,300,"Left","NoStop",28,172
23,143,0.09579999995,"Right",1,1,0,300,"Right","NoStop",28,172
23,144,0.07580000019,"Left",1,1,0,300,"Left","NoStop",28,172
23,145,0.09239999986,"Left",1,1,0,300,"Left","NoStop",28,172
23,146,0.05529999995,"Right",1,1,0,300,"Right","NoStop",28,172
23,147,0.049,"Right",1,1,0,300,"Right","NoStop",28,172
23,148,0.3318000002,"Right",1,1,0,300,"Right","NoStop",28,172
23,149,0.1225999999,"Left",1,1,0,300,"Left","NoStop",28,172
23,150,0.0515,"Left",1,1,0,300,"Left","NoStop",28,172
23,151,0.09819999981,"Right",1,1,0,300,"Right","NoStop",28,172
23,152,0.1102,"Right",1,1,0,300,"Right","NoStop",28,172
23,153,0.057,"Right",1,1,0,300,"Right","NoStop",28,172
23,154,0.2564000001,"Right",1,1,0,300,"Right","NoStop",28,172
23,155,0.2063999999,"Right",1,1,0,300,"Right","NoStop",28,172
23,156,0.2844000001,"Right",1,0,1,300,"NoGo","Stop",28,172
23,157,0.102,"Right",1,1,0,250,"Right","NoStop",28,172
23,158,0.139,"Right",1,1,0,250,"Right","NoStop",28,172
23,159,0.05720000005,"Left",1,0,1,250,"NoGo","Stop",28,172
23,160,0.493,"Left",1,1,0,200,"Left","NoStop",28,172
23,161,0.2063999999,"Right",1,1,0,200,"Right","NoStop",28,172
23,162,0.4065999999,"Left",1,1,0,200,"Left","NoStop",28,172
23,163,0.2062,"Right",1,0,1,200,"NoGo","Stop",28,172
23,164,0.2767,"Right",1,1,0,150,"Right","NoStop",28,172
23,165,1.349918,"NoGo",NA,1,0,150,"NoGo","Stop",28,172
23,166,0.08830000019,"Right",1,1,0,200,"Right","NoStop",28,172
23,167,0.6886000001,"Left",1,1,0,200,"Left","NoStop",28,172
23,168,0.08870000005,"Right",1,1,0,200,"Right","NoStop",28,172
23,169,0.2028,"Right",1,1,0,200,"Right","NoStop",28,172
23,170,0.2324000001,"Right",1,1,0,200,"Right","NoStop",28,172
23,171,0.1792,"Right",1,1,0,200,"Right","NoStop",28,172
23,172,0.283,"Left",1,1,0,200,"Left","NoStop",28,172
23,173,0.3145,"Left",1,1,0,200,"Left","NoStop",28,172
23,174,0.2201000001,"Left",1,1,0,200,"Left","NoStop",28,172
23,175,0.1655,"Right",1,1,0,200,"Right","NoStop",28,172
23,176,0.1235,"Right",1,1,0,200,"Right","NoStop",28,172
23,177,0.3258,"Left",1,0,1,200,"NoGo","Stop",28,172
23,178,0.2452,"Right",1,1,0,150,"Right","NoStop",28,172
23,179,0.2885999999,"Left",1,1,0,150,"Left","NoStop",28,172
23,180,0.2253,"Left",1,1,0,150,"Left","NoStop",28,172
23,181,1.34995,"NoGo",NA,0,1,150,"Left","NoStop",28,172
23,182,0.3905999999,"Right",1,1,0,150,"Right","NoStop",28,172
23,183,0.5028999999,"Right",1,1,0,150,"Right","NoStop",28,172
23,184,0.2154000001,"Right",1,1,0,150,"Right","NoStop",28,172
23,185,0.2268,"Right",1,1,0,150,"Right","NoStop",28,172
23,186,0.2416000001,"Right",1,1,0,150,"Right","NoStop",28,172
23,187,0.2336000001,"Right",1,0,1,150,"NoGo","Stop",28,172
23,188,1.399992,"NoGo",NA,1,0,100,"NoGo","Stop",28,172
23,189,0.2540999999,"Right",1,1,0,150,"Right","NoStop",28,172
23,190,1.350062,"NoGo",NA,1,0,150,"NoGo","Stop",28,172
23,191,0.252,"Right",1,1,0,200,"Right","NoStop",28,172
23,192,0.2619000001,"Left",1,1,0,200,"Left","NoStop",28,172
23,193,0.2260999999,"Left",1,1,0,200,"Left","NoStop",28,172
23,194,0.2936999998,"Left",1,1,0,200,"Left","NoStop",28,172
23,195,0.2043,"Right",1,1,0,200,"Right","NoStop",28,172
23,196,0.2086000001,"Right",1,1,0,200,"Right","NoStop",28,172
23,197,0.1838999999,"Left",1,1,0,200,"Left","NoStop",28,172
23,198,0.1373,"Right",1,1,0,200,"Right","NoStop",28,172
23,199,0.1309000001,"Right",1,0,1,200,"NoGo","Stop",28,172
23,200,1.350031,"NoGo",NA,1,0,150,"NoGo","Stop",28,172
23,201,1.300103,"NoGo",NA,1,0,200,"NoGo","Stop",28,172
23,202,1.249912,"NoGo",NA,1,0,250,"NoGo","Stop",28,172
23,203,1.200008,"NoGo",NA,1,0,300,"NoGo","Stop",28,172
23,204,0.6081000001,"Right",1,1,0,350,"Right","NoStop",28,172
23,205,0.4103999999,"Left",1,1,0,350,"Left","NoStop",28,172
23,206,0.2568,"Left",1,0,1,350,"NoGo","Stop",28,172
23,207,0.1420999999,"Right",1,1,0,300,"Right","NoStop",28,172
23,208,1.200492,"NoGo",NA,1,0,300,"NoGo","Stop",28,172
23,209,0.2698,"Right",1,1,0,350,"Right","NoStop",28,172
23,210,0.2105999999,"Right",1,0,1,350,"NoGo","Stop",28,172
23,211,0.2899000001,"Left",1,1,0,300,"Left","NoStop",28,172
23,212,0.1898999999,"Right",1,1,0,300,"Right","NoStop",28,172
23,213,0.3051999998,"Left",1,1,0,300,"Left","NoStop",28,172
23,214,0.2496000001,"Left",1,1,0,300,"Left","NoStop",28,172
23,215,0.1662,"Right",1,0,1,300,"NoGo","Stop",28,172
23,216,0.4351000001,"Left",1,1,0,250,"Left","NoStop",28,172
23,217,0.2268,"Left",1,1,0,250,"Left","NoStop",28,172
23,218,0.2457,"Right",1,1,0,250,"Right","NoStop",28,172
23,219,0.2445999999,"Left",1,1,0,250,"Left","NoStop",28,172
23,220,0.5484000001,"Left",1,1,0,250,"Left","NoStop",28,172
23,221,1.25009,"NoGo",NA,1,0,250,"NoGo","Stop",28,172
23,222,0.2276000001,"Left",1,1,0,300,"Left","NoStop",28,172
23,223,0.2573,"Left",1,1,0,300,"Left","NoStop",28,172
23,224,0.1913,"Right",1,1,0,300,"Right","NoStop",28,172
23,225,0.4095999999,"Right",1,1,0,300,"Right","NoStop",28,172
23,226,0.3064000001,"Left",1,0,1,300,"NoGo","Stop",28,172
23,227,0.2690999999,"Left",1,1,0,250,"Left","NoStop",28,172
23,228,0.2635999999,"Left",1,1,0,250,"Left","NoStop",28,172
23,229,0.2328,"Left",1,1,0,250,"Left","NoStop",28,172
23,230,0.4664000001,"Left",1,1,0,250,"Left","NoStop",28,172
23,231,0.173,"Right",1,0,1,250,"NoGo","Stop",28,172
23,232,0.2357,"Right",1,1,0,200,"Right","NoStop",28,172
23,233,0.1785999999,"Right",1,1,0,200,"Right","NoStop",28,172
23,234,0.3968,"Left",1,1,0,200,"Left","NoStop",28,172
23,235,0.2243,"Right",1,1,0,200,"Right","NoStop",28,172
23,236,0.2095999999,"Right",1,1,0,200,"Right","NoStop",28,172
23,237,0.2089000001,"Right",1,1,0,200,"Right","NoStop",28,172
23,238,0.2199000001,"Left",1,1,0,200,"Left","NoStop",28,172
23,239,1.299938,"NoGo",NA,1,0,200,"NoGo","Stop",28,172
23,240,0.3766999998,"Right",1,1,0,250,"Right","NoStop",28,172
26,1,0.1725,"Right",1,1,0,250,"Right","NoStop",15,233
26,2,0.1818,"Left",1,1,0,250,"Left","NoStop",15,233
26,3,0.1342,"Right",1,0,1,250,"NoGo","Stop",15,233
26,4,0.4393,"Left",1,1,0,200,"Left","NoStop",15,233
26,5,0.1857,"Right",1,1,0,200,"Right","NoStop",15,233
26,6,0.2967,"Left",1,1,0,200,"Left","NoStop",15,233
26,7,0.2526,"Left",1,1,0,200,"Left","NoStop",15,233
26,8,0.2496,"Left",1,1,0,200,"Left","NoStop",15,233
26,9,0.2952,"Right",1,1,0,200,"Right","NoStop",15,233
26,10,0.2556,"Right",1,1,0,200,"Right","NoStop",15,233
26,11,0.1693,"Right",1,0,1,200,"NoGo","Stop",15,233
26,12,0.1911,"Right",1,1,0,150,"Right","NoStop",15,233
26,13,0.251,"Right",1,1,0,150,"Right","NoStop",15,233
26,14,0.1676,"Right",1,1,0,150,"Right","NoStop",15,233
26,15,0.4878,"Left",1,1,0,150,"Left","NoStop",15,233
26,16,0.1679,"Right",1,1,0,150,"Right","NoStop",15,233
26,17,1.34865,"NoGo",NA,1,0,150,"NoGo","Stop",15,233
26,18,0.1682,"Left",1,1,0,200,"Left","NoStop",15,233
26,19,0.1588,"Right",1,0,1,200,"NoGo","Stop",15,233
26,20,0.5103,"Left",1,1,0,150,"Left","NoStop",15,233
26,21,0.2267,"Left",1,1,0,150,"Left","NoStop",15,233
26,22,0.4518,"Right",1,1,0,150,"Right","NoStop",15,233
26,23,0.2293,"Left",1,1,0,150,"Left","NoStop",15,233
26,24,1.348846,"NoGo",NA,1,0,150,"NoGo","Stop",15,233
26,25,0.1409,"Right",1,0,1,200,"NoGo","Stop",15,233
26,26,0.6954,"Right",1,1,0,150,"Right","NoStop",15,233
26,27,1.348973,"NoGo",NA,1,0,150,"NoGo","Stop",15,233
26,28,0.1022,"Left",1,0,1,200,"NoGo","Stop",15,233
26,29,0.6066,"Left",1,1,0,150,"Left","NoStop",15,233
26,30,0.4783,"Right",1,1,0,150,"Right","NoStop",15,233
26,31,0.2653,"Right",1,1,0,150,"Right","NoStop",15,233
26,32,1.348813,"NoGo",NA,1,0,150,"NoGo","Stop",15,233
26,33,0.4717,"Left",1,1,0,200,"Left","NoStop",15,233
26,34,1.299081,"NoGo",NA,1,0,200,"NoGo","Stop",15,233
26,35,0.523,"Right",1,1,0,250,"Right","NoStop",15,233
26,36,0.3483,"Left",1,1,0,250,"Left","NoStop",15,233
26,37,0.1521,"Right",1,0,1,250,"NoGo","Stop",15,233
26,38,0.552,"Right",1,1,0,200,"Right","NoStop",15,233
26,39,1.298829,"NoGo",NA,1,0,200,"NoGo","Stop",15,233
26,40,0.3693,"Left",1,1,0,250,"Left","NoStop",15,233
26,41,0.3512,"Left",1,1,0,250,"Left","NoStop",15,233
26,42,0.3662,"Right",1,1,0,250,"Right","NoStop",15,233
26,43,0.2831,"Right",1,1,0,250,"Right","NoStop",15,233
26,44,0.3109,"Left",1,1,0,250,"Left","NoStop",15,233
26,45,0.1794,"Right",1,1,0,250,"Right","NoStop",15,233
26,46,1.248874,"NoGo",NA,1,0,250,"NoGo","Stop",15,233
26,47,0.222,"Right",1,1,0,300,"Right","NoStop",15,233
26,48,0.3352,"Left",1,1,0,300,"Left","NoStop",15,233
26,49,0.4396,"Right",1,1,0,300,"Right","NoStop",15,233
26,50,0.1839,"Left",1,1,0,300,"Left","NoStop",15,233
26,51,0.2036,"Left",1,1,0,300,"Left","NoStop",15,233
26,52,0.2722,"Right",1,1,0,300,"Right","NoStop",15,233
26,53,0.1452,"Right",1,1,0,300,"Right","NoStop",15,233
26,54,0.1324,"Left",1,0,1,300,"NoGo","Stop",15,233
26,55,0.2319,"Right",1,1,0,250,"Right","NoStop",15,233
26,56,0.2619,"Left",1,1,0,250,"Left","NoStop",15,233
26,57,0.2928,"Right",1,1,0,250,"Right","NoStop",15,233
26,58,0.2307,"Right",1,1,0,250,"Right","NoStop",15,233
26,59,0.1366,"Left",1,0,1,250,"NoGo","Stop",15,233
26,60,0.388,"Left",1,1,0,200,"Left","NoStop",15,233
26,61,0.3733,"Left",1,1,0,200,"Left","NoStop",15,233
26,62,0.3418,"Left",1,1,0,200,"Left","NoStop",15,233
26,63,0.2881,"Left",1,1,0,200,"Left","NoStop",15,233
26,64,0.3488,"Right",1,1,0,200,"Right","NoStop",15,233
26,65,0.2768,"Left",1,1,0,200,"Left","NoStop",15,233
26,66,0.3204,"Left",1,1,0,200,"Left","NoStop",15,233
26,67,0.2716,"Left",1,1,0,200,"Left","NoStop",15,233
26,68,1.298703,"NoGo",NA,1,0,200,"NoGo","Stop",15,233
26,69,0.2283,"Right",1,1,0,250,"Right","NoStop",15,233
26,70,0.4409,"Left",1,1,0,250,"Left","NoStop",15,233
26,71,0.1052,"Left",1,0,1,250,"NoGo","Stop",15,233
26,72,1.298873,"NoGo",NA,1,0,200,"NoGo","Stop",15,233
26,73,0.092,"Right",1,1,0,250,"Right","NoStop",15,233
26,74,0.3309,"Left",1,1,0,250,"Left","NoStop",15,233
26,75,1.248769,"NoGo",NA,1,0,250,"NoGo","Stop",15,233
26,76,0.1739,"Left",1,1,0,300,"Left","NoStop",15,233
26,77,0.076,"Left",1,1,0,300,"Left","NoStop",15,233
26,78,0.105,"Left",1,1,0,300,"Left","NoStop",15,233
26,79,0.2545,"Right",1,1,0,300,"Right","NoStop",15,233
26,80,1.198758,"NoGo",NA,1,0,300,"NoGo","Stop",15,233
26,81,0.2371,"Right",1,1,0,350,"Right","NoStop",15,233
26,82,0.2128,"Left",1,0,1,350,"NoGo","Stop",15,233
26,83,0.2685,"Left",1,1,0,300,"Left","NoStop",15,233
26,84,0.2996,"Right",1,1,0,300,"Right","NoStop",15,233
26,85,0.2159,"Right",1,1,0,300,"Right","NoStop",15,233
26,86,0.1946,"Right",1,1,0,300,"Right","NoStop",15,233
26,87,0.2672,"Right",1,1,0,300,"Right","NoStop",15,233
26,88,1.199117,"NoGo",NA,1,0,300,"NoGo","Stop",15,233
26,89,0.014,"Right",1,1,0,350,"Right","NoStop",15,233
26,90,0.2279,"Left",1,1,0,350,"Left","NoStop",15,233
26,91,0.1114,"Left",1,1,0,350,"Left","NoStop",15,233
26,92,0.3163,"Right",1,1,0,350,"Right","NoStop",15,233
26,93,0.1555,"Right",1,1,0,350,"Right","NoStop",15,233
26,94,0.03,"Right",1,0,1,350,"NoGo","Stop",15,233
26,95,0.182,"Left",1,1,0,300,"Left","NoStop",15,233
26,96,0.2583,"Left",1,1,0,300,"Left","NoStop",15,233
26,97,1.198951,"NoGo",NA,1,0,300,"NoGo","Stop",15,233
26,98,0.0723,"Right",1,1,0,350,"Right","NoStop",15,233
26,99,0.2622,"Left",1,1,0,350,"Left","NoStop",15,233
26,100,0.0511,"Left",1,1,0,350,"Left","NoStop",15,233
26,101,0.1529,"Right",1,0,1,350,"NoGo","Stop",15,233
26,102,1.198954,"NoGo",NA,1,0,300,"NoGo","Stop",15,233
26,103,0.2179,"Right",1,1,0,350,"Right","NoStop",15,233
26,104,0.3332,"Left",1,1,0,350,"Left","NoStop",15,233
26,105,0.2439,"Left",1,1,0,350,"Left","NoStop",15,233
26,106,0.1548,"Right",1,0,1,350,"NoGo","Stop",15,233
26,107,1.198993,"NoGo",NA,1,0,300,"NoGo","Stop",15,233
26,108,0.3374,"Right",1,1,0,350,"Right","NoStop",15,233
26,109,1.148555,"NoGo",NA,1,0,350,"NoGo","Stop",15,233
26,110,0.3176,"Left",1,1,0,400,"Left","NoStop",15,233
26,111,0.4257,"Right",1,1,0,400,"Right","NoStop",15,233
26,112,0.1773,"Left",1,0,1,400,"NoGo","Stop",15,233
26,113,0.4675,"Left",1,1,0,350,"Left","NoStop",15,233
26,114,0.3149,"Left",1,1,0,350,"Left","NoStop",15,233
26,115,0.3523,"Right",1,1,0,350,"Right","NoStop",15,233
26,116,1.149075,"NoGo",NA,1,0,350,"NoGo","Stop",15,233
26,117,1.099284,"NoGo",NA,1,0,400,"NoGo","Stop",15,233
26,118,0.2533,"Right",1,1,0,450,"Right","NoStop",15,233
26,119,0.1818,"Right",1,1,0,450,"Right","NoStop",15,233
26,120,0.1214,"Left",1,1,0,450,"Left","NoStop",15,233
26,121,0.4282,"Left",1,1,0,450,"Left","NoStop",15,233
26,122,0.0619,"Right",1,1,0,450,"Right","NoStop",15,233
26,123,0.1139,"Left",1,1,0,450,"Left","NoStop",15,233
26,124,0.08,"Left",1,1,0,450,"Left","NoStop",15,233
26,125,0.0328,"Left",1,0,1,450,"NoGo","Stop",15,233
26,126,1.09884,"NoGo",NA,1,0,400,"NoGo","Stop",15,233
26,127,0.178,"Right",1,1,0,450,"Right","NoStop",15,233
26,128,0.1038,"Left",1,1,0,450,"Left","NoStop",15,233
26,129,0.2319,"Right",1,1,0,450,"Right","NoStop",15,233
26,130,0.3567,"Left",1,0,1,450,"NoGo","Stop",15,233
26,131,0.0125,"Left",1,1,0,400,"Left","NoStop",15,233
26,132,0.3841,"Left",1,1,0,400,"Left","NoStop",15,233
26,133,0.1183,"Left",1,1,0,400,"Left","NoStop",15,233
26,134,0.0348,"Left",1,1,0,400,"Left","NoStop",15,233
26,135,0.2421,"Left",1,1,0,400,"Left","NoStop",15,233
26,136,0.1642,"Right",1,1,0,400,"Right","NoStop",15,233
26,137,0.1088,"Right",1,1,0,400,"Right","NoStop",15,233
26,138,0.1512,"Right",1,1,0,400,"Right","NoStop",15,233
26,139,0.144,"Right",1,1,0,400,"Right","NoStop",15,233
26,140,0.0325,"Right",1,0,1,400,"NoGo","Stop",15,233
26,141,1.149122,"NoGo",NA,1,0,350,"NoGo","Stop",15,233
26,142,0.1199,"Right",1,1,0,400,"Right","NoStop",15,233
26,143,0.3057,"Right",1,1,0,400,"Right","NoStop",15,233
26,144,0.1457,"Left",1,1,0,400,"Left","NoStop",15,233
26,145,0.2293,"Right",1,1,0,400,"Right","NoStop",15,233
26,146,0.1133,"Left",1,1,0,400,"Left","NoStop",15,233
26,147,0.1513,"Left",1,1,0,400,"Left","NoStop",15,233
26,148,0.0953,"Right",1,1,0,400,"Right","NoStop",15,233
26,149,0.0573,"Right",1,1,0,400,"Right","NoStop",15,233
26,150,0.1942,"Left",1,0,1,400,"NoGo","Stop",15,233
26,151,0.7355,"Right",1,1,0,350,"Right","NoStop",15,233
26,152,1.14894,"NoGo",NA,1,0,350,"NoGo","Stop",15,233
26,153,0.044,"Left",1,0,1,400,"NoGo","Stop",15,233
26,154,0.5581,"Right",1,1,0,350,"Right","NoStop",15,233
26,155,0.495,"Left",1,1,0,350,"Left","NoStop",15,233
26,156,0.1621,"Left",1,1,0,350,"Left","NoStop",15,233
26,157,1.148717,"NoGo",NA,1,0,350,"NoGo","Stop",15,233
26,158,0.2127,"Right",1,1,0,400,"Right","NoStop",15,233
26,159,0.2281,"Right",1,1,0,400,"Right","NoStop",15,233
26,160,1.099086,"NoGo",NA,1,0,400,"NoGo","Stop",15,233
