"id","trial_number","rt","response","attempt","correct","incorrect","ssd","answer","task","ReflectionSum","BroodingSum","DepressiveSum","IntrusiveSum","DeliberateSum","ReappraisalSum","SuppressionSum","SSRT"
"2",1,126.2,"Right",1,1,0,250,"Right","NoStop",10,13,20,14,6,31,7,261
"2",2,142.7,"Left",1,1,0,250,"Left","NoStop",10,13,20,14,6,31,7,261
"2",3,135.5,"Right",1,1,0,250,"Right","NoStop",10,13,20,14,6,31,7,261
"2",4,106.9,"Right",1,0,1,250,"NoGo","Stop",10,13,20,14,6,31,7,261
"2",5,158.6,"Right",1,1,0,200,"Right","NoStop",10,13,20,14,6,31,7,261
"2",6,238.2,"Left",1,1,0,200,"Left","NoStop",10,13,20,14,6,31,7,261
"2",7,146.2,"Right",1,1,0,200,"Right","NoStop",10,13,20,14,6,31,7,261
"2",8,187.3,"Left",1,1,0,200,"Left","NoStop",10,13,20,14,6,31,7,261
"2",9,192.6,"Right",1,1,0,200,"Right","NoStop",10,13,20,14,6,31,7,261
"2",10,221.4,"Right",1,0,1,200,"NoGo","Stop",10,13,20,14,6,31,7,261
"2",11,208.3,"Right",1,1,0,150,"Right","NoStop",10,13,20,14,6,31,7,261
"2",12,234.4,"Right",1,0,1,150,"NoGo","Stop",10,13,20,14,6,31,7,261
"2",13,1053.6,"Right",1,0,1,100,"NoGo","Stop",10,13,20,14,6,31,7,261
"2",14,306.4,"Left",1,1,0,50,"Left","NoStop",10,13,20,14,6,31,7,261
"2",15,395.5,"Right",1,1,0,50,"Right","NoStop",10,13,20,14,6,31,7,261
"2",16,1449.868,"NoGo",NA,1,0,50,"NoGo","Stop",10,13,20,14,6,31,7,261
"2",17,336.4,"Right",1,1,0,100,"Right","NoStop",10,13,20,14,6,31,7,261
"2",18,263.6,"Right",1,1,0,100,"Right","NoStop",10,13,20,14,6,31,7,261
"2",19,400.1,"Left",1,1,0,100,"Left","NoStop",10,13,20,14,6,31,7,261
"2",20,363.8,"Left",1,1,0,100,"Left","NoStop",10,13,20,14,6,31,7,261
"2",21,319.4,"Left",1,1,0,100,"Left","NoStop",10,13,20,14,6,31,7,261
"2",22,279.6,"Right",1,1,0,100,"Right","NoStop",10,13,20,14,6,31,7,261
"2",23,357.2,"Right",1,1,0,100,"Right","NoStop",10,13,20,14,6,31,7,261
"2",24,1399.86,"NoGo",NA,1,0,100,"NoGo","Stop",10,13,20,14,6,31,7,261
"2",25,247,"Right",1,0,1,150,"NoGo","Stop",10,13,20,14,6,31,7,261
"2",26,297.1,"Left",1,1,0,100,"Left","NoStop",10,13,20,14,6,31,7,261
"2",27,312.2,"Left",1,1,0,100,"Left","NoStop",10,13,20,14,6,31,7,261
"2",28,316.5,"Left",1,0,1,100,"NoGo","Stop",10,13,20,14,6,31,7,261
"2",29,399.1,"Right",1,1,0,50,"Right","NoStop",10,13,20,14,6,31,7,261
"2",30,519.5,"Right",1,1,0,50,"Right","NoStop",10,13,20,14,6,31,7,261
"2",31,1449.95,"NoGo",NA,1,0,50,"NoGo","Stop",10,13,20,14,6,31,7,261
"2",32,1399.901,"NoGo",NA,1,0,100,"NoGo","Stop",10,13,20,14,6,31,7,261
"2",33,369.3,"Left",1,1,0,150,"Left","NoStop",10,13,20,14,6,31,7,261
"2",34,1349.854,"NoGo",NA,1,0,150,"NoGo","Stop",10,13,20,14,6,31,7,261
"2",35,1299.808,"NoGo",NA,1,0,200,"NoGo","Stop",10,13,20,14,6,31,7,261
"2",36,250.8,"Right",1,1,0,250,"Right","NoStop",10,13,20,14,6,31,7,261
"2",37,201.5,"Left",1,1,0,250,"Left","NoStop",10,13,20,14,6,31,7,261
"2",38,256.3,"Right",1,1,0,250,"Right","NoStop",10,13,20,14,6,31,7,261
"2",39,172.3,"Left",1,1,0,250,"Left","NoStop",10,13,20,14,6,31,7,261
"2",40,189.4,"Left",1,1,0,250,"Left","NoStop",10,13,20,14,6,31,7,261
"2",41,250.4,"Right",1,1,0,250,"Right","NoStop",10,13,20,14,6,31,7,261
"2",42,204.2,"Right",1,1,0,250,"Right","NoStop",10,13,20,14,6,31,7,261
"2",43,225.4,"Left",1,0,1,250,"NoGo","Stop",10,13,20,14,6,31,7,261
"2",44,471.8,"Right",1,1,0,200,"Right","NoStop",10,13,20,14,6,31,7,261
"2",45,1299.944,"NoGo",NA,1,0,200,"NoGo","Stop",10,13,20,14,6,31,7,261
"2",46,190,"Right",1,1,0,250,"Right","NoStop",10,13,20,14,6,31,7,261
"2",47,199.7,"Right",1,1,0,250,"Right","NoStop",10,13,20,14,6,31,7,261
"2",48,143.5,"Right",1,0,1,250,"NoGo","Stop",10,13,20,14,6,31,7,261
"2",49,352,"Right",1,1,0,200,"Right","NoStop",10,13,20,14,6,31,7,261
"2",50,311.8,"Right",1,1,0,200,"Right","NoStop",10,13,20,14,6,31,7,261
"2",51,419.6,"Left",1,1,0,200,"Left","NoStop",10,13,20,14,6,31,7,261
"2",52,1299.865,"NoGo",NA,1,0,200,"NoGo","Stop",10,13,20,14,6,31,7,261
"2",53,201.1,"Right",1,1,0,250,"Right","NoStop",10,13,20,14,6,31,7,261
"2",54,211.2,"Left",1,1,0,250,"Left","NoStop",10,13,20,14,6,31,7,261
"2",55,284.4,"Right",1,1,0,250,"Right","NoStop",10,13,20,14,6,31,7,261
"2",56,221.6,"Left",1,1,0,250,"Left","NoStop",10,13,20,14,6,31,7,261
"2",57,186.3,"Left",1,0,1,250,"NoGo","Stop",10,13,20,14,6,31,7,261
"2",58,299.6,"Right",1,1,0,200,"Right","NoStop",10,13,20,14,6,31,7,261
"2",59,329.4,"Right",1,1,0,200,"Right","NoStop",10,13,20,14,6,31,7,261
"2",60,418.6,"Left",1,1,0,200,"Left","NoStop",10,13,20,14,6,31,7,261
"2",61,1299.905,"NoGo",NA,1,0,200,"NoGo","Stop",10,13,20,14,6,31,7,261
"2",62,139.8,"Left",1,0,1,250,"NoGo","Stop",10,13,20,14,6,31,7,261
"2",63,471.5,"Right",1,1,0,200,"Right","NoStop",10,13,20,14,6,31,7,261
"2",64,467.2,"Right",1,1,0,200,"Right","NoStop",10,13,20,14,6,31,7,261
"2",65,359,"Left",1,1,0,200,"Left","NoStop",10,13,20,14,6,31,7,261
"2",66,363.7,"Left",1,1,0,200,"Left","NoStop",10,13,20,14,6,31,7,261
"2",67,236.6,"Left",1,1,0,200,"Left","NoStop",10,13,20,14,6,31,7,261
"2",68,416.5,"Right",1,1,0,200,"Right","NoStop",10,13,20,14,6,31,7,261
"2",69,1300.124,"NoGo",NA,1,0,200,"NoGo","Stop",10,13,20,14,6,31,7,261
"2",70,209.1,"Right",1,1,0,250,"Right","NoStop",10,13,20,14,6,31,7,261
"2",71,1249.913,"NoGo",NA,1,0,250,"NoGo","Stop",10,13,20,14,6,31,7,261
"2",72,208.1,"Left",1,1,0,300,"Left","NoStop",10,13,20,14,6,31,7,261
"2",73,316.1,"Left",1,1,0,300,"Left","NoStop",10,13,20,14,6,31,7,261
"2",74,173.2,"Right",1,1,0,300,"Right","NoStop",10,13,20,14,6,31,7,261
"2",75,242.7,"Left",1,1,0,300,"Left","NoStop",10,13,20,14,6,31,7,261
"2",76,229.6,"Right",1,1,0,300,"Right","NoStop",10,13,20,14,6,31,7,261
"2",77,189.1,"Left",1,1,0,300,"Left","NoStop",10,13,20,14,6,31,7,261
"2",78,534.7,"Left",1,1,0,300,"Left","NoStop",10,13,20,14,6,31,7,261
"2",79,227.7,"Left",1,0,1,300,"NoGo","Stop",10,13,20,14,6,31,7,261
"2",80,327.9,"Left",1,1,0,250,"Left","NoStop",10,13,20,14,6,31,7,261
"2",81,227.1,"Left",1,1,0,250,"Left","NoStop",10,13,20,14,6,31,7,261
"2",82,436,"Right",1,1,0,250,"Right","NoStop",10,13,20,14,6,31,7,261
"2",83,258.2,"Right",1,1,0,250,"Right","NoStop",10,13,20,14,6,31,7,261
"2",84,265.7,"Left",1,1,0,250,"Left","NoStop",10,13,20,14,6,31,7,261
"2",85,293.2,"Right",1,1,0,250,"Right","NoStop",10,13,20,14,6,31,7,261
"2",86,201.5,"Right",1,1,0,250,"Right","NoStop",10,13,20,14,6,31,7,261
"2",87,111.8,"Right",1,1,0,250,"Right","NoStop",10,13,20,14,6,31,7,261
"2",88,1249.919,"NoGo",NA,1,0,250,"NoGo","Stop",10,13,20,14,6,31,7,261
"2",89,117.3,"Right",1,1,0,300,"Right","NoStop",10,13,20,14,6,31,7,261
"2",90,248,"Left",1,1,0,300,"Left","NoStop",10,13,20,14,6,31,7,261
"2",91,180.1,"Left",1,1,0,300,"Left","NoStop",10,13,20,14,6,31,7,261
"2",92,1199.824,"NoGo",NA,1,0,300,"NoGo","Stop",10,13,20,14,6,31,7,261
"2",93,87.40000001,"Right",1,0,1,350,"NoGo","Stop",10,13,20,14,6,31,7,261
"2",94,350.2,"Right",1,1,0,300,"Right","NoStop",10,13,20,14,6,31,7,261
"2",95,269.1,"Left",1,1,0,300,"Left","NoStop",10,13,20,14,6,31,7,261
"2",96,222.4,"Left",1,1,0,300,"Left","NoStop",10,13,20,14,6,31,7,261
"2",97,194.1,"Right",1,1,0,300,"Right","NoStop",10,13,20,14,6,31,7,261
"2",98,209.7,"Left",1,1,0,300,"Left","NoStop",10,13,20,14,6,31,7,261
"2",99,332.3,"Left",1,1,0,300,"Left","NoStop",10,13,20,14,6,31,7,261
"2",100,104.3,"Right",1,1,0,300,"Right","NoStop",10,13,20,14,6,31,7,261
"2",101,119.9,"Right",1,1,0,300,"Right","NoStop",10,13,20,14,6,31,7,261
"2",102,157.7,"Right",1,1,0,300,"Right","NoStop",10,13,20,14,6,31,7,261
"2",103,1199.883,"NoGo",NA,1,0,300,"NoGo","Stop",10,13,20,14,6,31,7,261
"2",104,39.80000001,"Right",1,0,1,350,"NoGo","Stop",10,13,20,14,6,31,7,261
"2",105,139.6,"Right",1,1,0,300,"Right","NoStop",10,13,20,14,6,31,7,261
"2",106,127.1,"Right",1,0,1,300,"NoGo","Stop",10,13,20,14,6,31,7,261
"2",107,217,"Left",1,1,0,250,"Left","NoStop",10,13,20,14,6,31,7,261
"2",108,229.2,"Right",1,1,0,250,"Right","NoStop",10,13,20,14,6,31,7,261
"2",109,1249.831,"NoGo",NA,1,0,250,"NoGo","Stop",10,13,20,14,6,31,7,261
"2",110,127.8,"Left",1,1,0,300,"Left","NoStop",10,13,20,14,6,31,7,261
"2",111,199.6,"Left",1,1,0,300,"Left","NoStop",10,13,20,14,6,31,7,261
"2",112,184.6,"Right",1,1,0,300,"Right","NoStop",10,13,20,14,6,31,7,261
"2",113,219.7,"Right",1,1,0,300,"Right","NoStop",10,13,20,14,6,31,7,261
"2",114,146.7,"Right",1,1,0,300,"Right","NoStop",10,13,20,14,6,31,7,261
"2",115,273.5,"Left",1,1,0,300,"Left","NoStop",10,13,20,14,6,31,7,261
"2",116,133.4,"Left",1,1,0,300,"Left","NoStop",10,13,20,14,6,31,7,261
"2",117,1199.822,"NoGo",NA,1,0,300,"NoGo","Stop",10,13,20,14,6,31,7,261
"2",118,161.3,"Left",1,0,1,350,"NoGo","Stop",10,13,20,14,6,31,7,261
"2",119,231.3,"Left",1,1,0,300,"Left","NoStop",10,13,20,14,6,31,7,261
"2",120,220.8,"Right",1,1,0,300,"Right","NoStop",10,13,20,14,6,31,7,261
"2",121,419,"Left",1,1,0,300,"Left","NoStop",10,13,20,14,6,31,7,261
"2",122,158.5,"Left",1,1,0,300,"Left","NoStop",10,13,20,14,6,31,7,261
"2",123,218.2,"Right",1,1,0,300,"Right","NoStop",10,13,20,14,6,31,7,261
"2",124,142.5,"Left",1,1,0,300,"Left","NoStop",10,13,20,14,6,31,7,261
"2",125,1200.163,"NoGo",NA,1,0,300,"NoGo","Stop",10,13,20,14,6,31,7,261
"2",126,104.3,"Left",1,1,0,350,"Left","NoStop",10,13,20,14,6,31,7,261
"2",127,57.89999998,"Left",1,1,0,350,"Left","NoStop",10,13,20,14,6,31,7,261
"2",128,166,"Left",1,1,0,350,"Left","NoStop",10,13,20,14,6,31,7,261
"2",129,29.30000001,"Left",1,1,0,350,"Left","NoStop",10,13,20,14,6,31,7,261
"2",130,289.3,"Right",1,1,0,350,"Right","NoStop",10,13,20,14,6,31,7,261
"2",131,109.7,"Left",1,0,1,350,"NoGo","Stop",10,13,20,14,6,31,7,261
"2",132,263,"Left",1,1,0,300,"Left","NoStop",10,13,20,14,6,31,7,261
"2",133,166.6,"Left",1,1,0,300,"Left","NoStop",10,13,20,14,6,31,7,261
"2",134,123.9,"Left",1,1,0,300,"Left","NoStop",10,13,20,14,6,31,7,261
"2",135,106.9,"Left",1,1,0,300,"Left","NoStop",10,13,20,14,6,31,7,261
"2",136,241.8,"Right",1,1,0,300,"Right","NoStop",10,13,20,14,6,31,7,261
"2",137,201.1,"Left",1,1,0,300,"Left","NoStop",10,13,20,14,6,31,7,261
"2",138,179.5,"Right",1,1,0,300,"Right","NoStop",10,13,20,14,6,31,7,261
"2",139,162.5,"Right",1,1,0,300,"Right","NoStop",10,13,20,14,6,31,7,261
"2",140,290.3,"Left",1,1,0,300,"Left","NoStop",10,13,20,14,6,31,7,261
"2",141,298.9,"Left",1,1,0,300,"Left","NoStop",10,13,20,14,6,31,7,261
"2",142,1199.944,"NoGo",NA,1,0,300,"NoGo","Stop",10,13,20,14,6,31,7,261
"2",143,343.4,"Right",1,1,0,350,"Right","NoStop",10,13,20,14,6,31,7,261
"2",144,75.30000001,"Right",1,1,0,350,"Right","NoStop",10,13,20,14,6,31,7,261
"2",145,92.90000001,"Right",1,1,0,350,"Right","NoStop",10,13,20,14,6,31,7,261
"2",146,144.2,"Right",1,0,1,350,"NoGo","Stop",10,13,20,14,6,31,7,261
"2",147,339.9,"Right",1,0,1,300,"Left","NoStop",10,13,20,14,6,31,7,261
"2",148,226.6,"Left",1,1,0,300,"Left","NoStop",10,13,20,14,6,31,7,261
"2",149,284.7,"Right",1,1,0,300,"Right","NoStop",10,13,20,14,6,31,7,261
"2",150,292.2,"Right",1,1,0,300,"Right","NoStop",10,13,20,14,6,31,7,261
"2",151,228.1,"Right",1,1,0,300,"Right","NoStop",10,13,20,14,6,31,7,261
"2",152,253.7,"Right",1,1,0,300,"Right","NoStop",10,13,20,14,6,31,7,261
"2",153,807.5,"Left",1,1,0,300,"Left","NoStop",10,13,20,14,6,31,7,261
"2",154,278.9,"Left",1,1,0,300,"Left","NoStop",10,13,20,14,6,31,7,261
"2",155,196.2,"Left",1,0,1,300,"NoGo","Stop",10,13,20,14,6,31,7,261
"2",156,625.4,"Right",1,1,0,250,"Right","NoStop",10,13,20,14,6,31,7,261
"2",157,368.2,"Left",1,1,0,250,"Left","NoStop",10,13,20,14,6,31,7,261
"2",158,301,"Left",1,1,0,250,"Left","NoStop",10,13,20,14,6,31,7,261
"2",159,262.8,"Right",1,1,0,250,"Right","NoStop",10,13,20,14,6,31,7,261
"2",160,310.4,"Left",1,1,0,250,"Left","NoStop",10,13,20,14,6,31,7,261
"2",161,360.4,"Right",1,1,0,250,"Right","NoStop",10,13,20,14,6,31,7,261
"2",162,345.5,"Left",1,1,0,250,"Left","NoStop",10,13,20,14,6,31,7,261
"2",163,245.1,"Left",1,1,0,250,"Left","NoStop",10,13,20,14,6,31,7,261
"2",164,429.2,"Left",1,1,0,250,"Left","NoStop",10,13,20,14,6,31,7,261
"2",165,274.3,"Left",1,1,0,250,"Left","NoStop",10,13,20,14,6,31,7,261
"2",166,242.9,"Left",1,1,0,250,"Left","NoStop",10,13,20,14,6,31,7,261
"2",167,174,"Left",1,0,1,250,"NoGo","Stop",10,13,20,14,6,31,7,261
"2",168,331.8,"Right",1,1,0,200,"Right","NoStop",10,13,20,14,6,31,7,261
"2",169,337.3,"Left",1,1,0,200,"Left","NoStop",10,13,20,14,6,31,7,261
"2",170,199.1,"Right",1,1,0,200,"Right","NoStop",10,13,20,14,6,31,7,261
"2",171,185.9,"Left",1,1,0,200,"Left","NoStop",10,13,20,14,6,31,7,261
"2",172,198.7,"Left",1,0,1,200,"NoGo","Stop",10,13,20,14,6,31,7,261
"2",173,1349.893,"NoGo",NA,1,0,150,"NoGo","Stop",10,13,20,14,6,31,7,261
"2",174,211.1,"Right",1,1,0,200,"Right","NoStop",10,13,20,14,6,31,7,261
"2",175,235,"Right",1,0,1,200,"NoGo","Stop",10,13,20,14,6,31,7,261
"2",176,269.9,"Right",1,1,0,150,"Right","NoStop",10,13,20,14,6,31,7,261
"2",177,1349.838,"NoGo",NA,1,0,150,"NoGo","Stop",10,13,20,14,6,31,7,261
"2",178,247.7,"Left",1,1,0,200,"Left","NoStop",10,13,20,14,6,31,7,261
"2",179,323.6,"Right",1,1,0,200,"Right","NoStop",10,13,20,14,6,31,7,261
"2",180,1299.833,"NoGo",NA,1,0,200,"NoGo","Stop",10,13,20,14,6,31,7,261
"2",181,250.6,"Left",1,1,0,250,"Left","NoStop",10,13,20,14,6,31,7,261
"2",182,161.5,"Left",1,1,0,250,"Left","NoStop",10,13,20,14,6,31,7,261
"2",183,213.7,"Left",1,1,0,250,"Left","NoStop",10,13,20,14,6,31,7,261
"2",184,312.9,"Left",1,1,0,250,"Left","NoStop",10,13,20,14,6,31,7,261
"2",185,358.2,"Right",1,1,0,250,"Right","NoStop",10,13,20,14,6,31,7,261
"2",186,243.8,"Left",1,1,0,250,"Left","NoStop",10,13,20,14,6,31,7,261
"2",187,1249.808,"NoGo",NA,1,0,250,"NoGo","Stop",10,13,20,14,6,31,7,261
"2",188,128.2,"Left",1,1,0,300,"Left","NoStop",10,13,20,14,6,31,7,261
"2",189,152.8,"Right",1,1,0,300,"Right","NoStop",10,13,20,14,6,31,7,261
"2",190,240.5,"Left",1,1,0,300,"Left","NoStop",10,13,20,14,6,31,7,261
"2",191,111.5,"Left",1,1,0,300,"Left","NoStop",10,13,20,14,6,31,7,261
"2",192,209.5,"Right",1,0,1,300,"NoGo","Stop",10,13,20,14,6,31,7,261
"2",193,255.1,"Right",1,1,0,250,"Right","NoStop",10,13,20,14,6,31,7,261
"2",194,304,"Right",1,1,0,250,"Right","NoStop",10,13,20,14,6,31,7,261
"2",195,280.4,"Left",1,1,0,250,"Left","NoStop",10,13,20,14,6,31,7,261
"2",196,183.4,"Right",1,1,0,250,"Right","NoStop",10,13,20,14,6,31,7,261
"2",197,1249.819,"NoGo",NA,1,0,250,"NoGo","Stop",10,13,20,14,6,31,7,261
"2",198,159.6,"Right",1,0,1,300,"NoGo","Stop",10,13,20,14,6,31,7,261
"2",199,367.2,"Right",1,1,0,250,"Right","NoStop",10,13,20,14,6,31,7,261
"2",200,227.6,"Left",1,0,1,250,"NoGo","Stop",10,13,20,14,6,31,7,261
"2",201,1299.885,"NoGo",NA,1,0,200,"NoGo","Stop",10,13,20,14,6,31,7,261
"2",202,288.1,"Right",1,1,0,250,"Right","NoStop",10,13,20,14,6,31,7,261
"2",203,344.5,"Right",1,1,0,250,"Right","NoStop",10,13,20,14,6,31,7,261
"2",204,242.5,"Right",1,1,0,250,"Right","NoStop",10,13,20,14,6,31,7,261
"2",205,409.9,"Left",1,1,0,250,"Left","NoStop",10,13,20,14,6,31,7,261
"2",206,199.3,"Left",1,0,1,250,"NoGo","Stop",10,13,20,14,6,31,7,261
"2",207,573.9,"Left",1,1,0,200,"Left","NoStop",10,13,20,14,6,31,7,261
"2",208,464,"Left",1,1,0,200,"Left","NoStop",10,13,20,14,6,31,7,261
"2",209,404.9,"Right",1,1,0,200,"Right","NoStop",10,13,20,14,6,31,7,261
"2",210,349.9,"Left",1,1,0,200,"Left","NoStop",10,13,20,14,6,31,7,261
"2",211,1299.817,"NoGo",NA,1,0,200,"NoGo","Stop",10,13,20,14,6,31,7,261
"2",212,350.3,"Right",1,1,0,250,"Right","NoStop",10,13,20,14,6,31,7,261
"2",213,331.2,"Left",1,1,0,250,"Left","NoStop",10,13,20,14,6,31,7,261
"2",214,450.3,"Left",1,1,0,250,"Left","NoStop",10,13,20,14,6,31,7,261
"2",215,268.1,"Right",1,1,0,250,"Right","NoStop",10,13,20,14,6,31,7,261
"2",216,247.7,"Right",1,1,0,250,"Right","NoStop",10,13,20,14,6,31,7,261
"2",217,363.8,"Left",1,1,0,250,"Left","NoStop",10,13,20,14,6,31,7,261
"2",218,275.3,"Left",1,1,0,250,"Left","NoStop",10,13,20,14,6,31,7,261
"2",219,1249.982,"NoGo",NA,1,0,250,"NoGo","Stop",10,13,20,14,6,31,7,261
"2",220,239.3,"Left",1,1,0,300,"Left","NoStop",10,13,20,14,6,31,7,261
"2",221,312,"Left",1,1,0,300,"Left","NoStop",10,13,20,14,6,31,7,261
"2",222,1199.996,"NoGo",NA,1,0,300,"NoGo","Stop",10,13,20,14,6,31,7,261
"2",223,134.3,"Left",1,0,1,350,"NoGo","Stop",10,13,20,14,6,31,7,261
"2",224,1199.79,"NoGo",NA,1,0,300,"NoGo","Stop",10,13,20,14,6,31,7,261
"2",225,83.80000001,"Right",1,1,0,350,"Right","NoStop",10,13,20,14,6,31,7,261
"2",226,251.1,"Right",1,0,1,350,"NoGo","Stop",10,13,20,14,6,31,7,261
"2",227,1200.048,"NoGo",NA,1,0,300,"NoGo","Stop",10,13,20,14,6,31,7,261
"2",228,200.5,"Right",1,1,0,350,"Right","NoStop",10,13,20,14,6,31,7,261
"2",229,310.6,"Right",1,1,0,350,"Right","NoStop",10,13,20,14,6,31,7,261
"2",230,1149.904,"NoGo",NA,1,0,350,"NoGo","Stop",10,13,20,14,6,31,7,261
"2",231,105.8,"Left",1,0,1,400,"NoGo","Stop",10,13,20,14,6,31,7,261
"2",232,366.2,"Right",1,1,0,350,"Right","NoStop",10,13,20,14,6,31,7,261
"2",233,271,"Right",1,1,0,350,"Right","NoStop",10,13,20,14,6,31,7,261
"2",234,321.1,"Left",1,1,0,350,"Left","NoStop",10,13,20,14,6,31,7,261
"2",235,160.5,"Right",1,0,1,350,"NoGo","Stop",10,13,20,14,6,31,7,261
"2",236,354.5,"Left",1,1,0,300,"Left","NoStop",10,13,20,14,6,31,7,261
"2",237,261,"Right",1,1,0,300,"Right","NoStop",10,13,20,14,6,31,7,261
"2",238,250.2,"Right",1,1,0,300,"Right","NoStop",10,13,20,14,6,31,7,261
"2",239,155.4,"Right",1,1,0,300,"Right","NoStop",10,13,20,14,6,31,7,261
"2",240,1199.798,"NoGo",NA,1,0,300,"NoGo","Stop",10,13,20,14,6,31,7,261
"3",1,137.3,"Right",1,1,0,250,"Right","NoStop",9,9,24,11,12,32,5,252
"3",2,156.1,"Right",1,1,0,250,"Right","NoStop",9,9,24,11,12,32,5,252
"3",3,155.6,"Right",1,1,0,250,"Right","NoStop",9,9,24,11,12,32,5,252
"3",4,111.1,"Right",1,0,1,250,"NoGo","Stop",9,9,24,11,12,32,5,252
"3",5,314.2,"Left",1,1,0,200,"Left","NoStop",9,9,24,11,12,32,5,252
"3",6,431.1999999,"Right",1,0,1,200,"NoGo","Stop",9,9,24,11,12,32,5,252
"3",7,510,"Right",1,1,0,150,"Right","NoStop",9,9,24,11,12,32,5,252
"3",8,1349.587,"NoGo",NA,1,0,150,"NoGo","Stop",9,9,24,11,12,32,5,252
"3",9,1299.548,"NoGo",NA,1,0,200,"NoGo","Stop",9,9,24,11,12,32,5,252
"3",10,290.9,"Right",1,1,0,250,"Right","NoStop",9,9,24,11,12,32,5,252
"3",11,251.6,"Right",1,0,1,250,"NoGo","Stop",9,9,24,11,12,32,5,252
"3",12,1299.613,"NoGo",NA,1,0,200,"NoGo","Stop",9,9,24,11,12,32,5,252
"3",13,410.9,"Right",1,1,0,250,"Right","NoStop",9,9,24,11,12,32,5,252
"3",14,132.2,"Right",1,1,0,250,"Right","NoStop",9,9,24,11,12,32,5,252
"3",15,375.3000001,"Left",1,1,0,250,"Left","NoStop",9,9,24,11,12,32,5,252
"3",16,235.6,"Left",1,1,0,250,"Left","NoStop",9,9,24,11,12,32,5,252
"3",17,400.7,"Right",1,1,0,250,"Right","NoStop",9,9,24,11,12,32,5,252
"3",18,105.7,"Right",1,1,0,250,"Right","NoStop",9,9,24,11,12,32,5,252
"3",19,260.5,"Right",1,1,0,250,"Right","NoStop",9,9,24,11,12,32,5,252
"3",20,367.6999999,"Left",1,1,0,250,"Left","NoStop",9,9,24,11,12,32,5,252
"3",21,1249.483,"NoGo",NA,1,0,250,"NoGo","Stop",9,9,24,11,12,32,5,252
"3",22,296.7,"Right",1,1,0,300,"Right","NoStop",9,9,24,11,12,32,5,252
"3",23,42.5,"Left",1,1,0,300,"Left","NoStop",9,9,24,11,12,32,5,252
"3",24,132.9,"Right",1,1,0,300,"Right","NoStop",9,9,24,11,12,32,5,252
"3",25,102.9,"Left",1,0,1,300,"NoGo","Stop",9,9,24,11,12,32,5,252
"3",26,432.3,"Left",1,1,0,250,"Left","NoStop",9,9,24,11,12,32,5,252
"3",27,142.4,"Right",1,1,0,250,"Right","NoStop",9,9,24,11,12,32,5,252
"3",28,339.2,"Right",1,1,0,250,"Right","NoStop",9,9,24,11,12,32,5,252
"3",29,565.3000001,"Right",1,1,0,250,"Right","NoStop",9,9,24,11,12,32,5,252
"3",30,224.1,"Left",1,1,0,250,"Left","NoStop",9,9,24,11,12,32,5,252
"3",31,270.6,"Left",1,1,0,250,"Left","NoStop",9,9,24,11,12,32,5,252
"3",32,242.4,"Right",1,1,0,250,"Right","NoStop",9,9,24,11,12,32,5,252
"3",33,183.8,"Left",1,1,0,250,"Left","NoStop",9,9,24,11,12,32,5,252
"3",34,407.9000001,"Right",1,1,0,250,"Right","NoStop",9,9,24,11,12,32,5,252
"3",35,1249.522,"NoGo",NA,1,0,250,"NoGo","Stop",9,9,24,11,12,32,5,252
"3",36,112.9,"Left",1,1,0,300,"Left","NoStop",9,9,24,11,12,32,5,252
"3",37,106.1,"Left",1,1,0,300,"Left","NoStop",9,9,24,11,12,32,5,252
"3",38,251.1,"Right",1,1,0,300,"Right","NoStop",9,9,24,11,12,32,5,252
"3",39,184,"Left",1,1,0,300,"Left","NoStop",9,9,24,11,12,32,5,252
"3",40,246.6,"Right",1,1,0,300,"Right","NoStop",9,9,24,11,12,32,5,252
"3",41,183.1999999,"Right",1,1,0,300,"Right","NoStop",9,9,24,11,12,32,5,252
"3",42,300.2,"Left",1,1,0,300,"Left","NoStop",9,9,24,11,12,32,5,252
"3",43,1199.494,"NoGo",NA,1,0,300,"NoGo","Stop",9,9,24,11,12,32,5,252
"3",44,32.0999999,"Left",1,1,0,350,"Left","NoStop",9,9,24,11,12,32,5,252
"3",45,252.3000001,"Left",1,1,0,350,"Left","NoStop",9,9,24,11,12,32,5,252
"3",46,1149.547,"NoGo",NA,1,0,350,"NoGo","Stop",9,9,24,11,12,32,5,252
"3",47,90,"Left",1,1,0,400,"Left","NoStop",9,9,24,11,12,32,5,252
"3",48,41.19999993,"Right",1,1,0,400,"Right","NoStop",9,9,24,11,12,32,5,252
"3",49,84.5,"Left",1,0,1,400,"NoGo","Stop",9,9,24,11,12,32,5,252
"3",50,156.2,"Left",1,1,0,350,"Left","NoStop",9,9,24,11,12,32,5,252
"3",51,215.6999999,"Left",1,1,0,350,"Left","NoStop",9,9,24,11,12,32,5,252
"3",52,164.8000001,"Right",1,1,0,350,"Right","NoStop",9,9,24,11,12,32,5,252
"3",53,114.1,"Left",1,0,1,350,"NoGo","Stop",9,9,24,11,12,32,5,252
"3",54,136.9,"Left",1,1,0,300,"Left","NoStop",9,9,24,11,12,32,5,252
"3",55,143.9,"Left",1,1,0,300,"Left","NoStop",9,9,24,11,12,32,5,252
"3",56,142.4,"Right",1,1,0,300,"Right","NoStop",9,9,24,11,12,32,5,252
"3",57,156.6999999,"Right",1,1,0,300,"Right","NoStop",9,9,24,11,12,32,5,252
"3",58,278.2,"Left",1,1,0,300,"Left","NoStop",9,9,24,11,12,32,5,252
"3",59,110.5,"Right",1,1,0,300,"Right","NoStop",9,9,24,11,12,32,5,252
"3",60,178,"Left",1,1,0,300,"Left","NoStop",9,9,24,11,12,32,5,252
"3",61,1013.1,"Right",1,1,0,300,"Right","NoStop",9,9,24,11,12,32,5,252
"3",62,80.60000002,"Right",1,0,1,300,"NoGo","Stop",9,9,24,11,12,32,5,252
"3",63,266.1999999,"Left",1,1,0,250,"Left","NoStop",9,9,24,11,12,32,5,252
"3",64,158.9,"Left",1,1,0,250,"Left","NoStop",9,9,24,11,12,32,5,252
"3",65,122.4,"Left",1,1,0,250,"Left","NoStop",9,9,24,11,12,32,5,252
"3",66,49.29999995,"Left",1,1,0,250,"Left","NoStop",9,9,24,11,12,32,5,252
"3",67,234.8000001,"Right",1,1,0,250,"Right","NoStop",9,9,24,11,12,32,5,252
"3",68,382.3,"Right",1,1,0,250,"Right","NoStop",9,9,24,11,12,32,5,252
"3",69,99.69999993,"Right",1,1,0,250,"Right","NoStop",9,9,24,11,12,32,5,252
"3",70,169.1,"Left",1,1,0,250,"Left","NoStop",9,9,24,11,12,32,5,252
"3",71,197.1999999,"Right",1,1,0,250,"Right","NoStop",9,9,24,11,12,32,5,252
"3",72,44.29999995,"Right",1,0,1,250,"NoGo","Stop",9,9,24,11,12,32,5,252
"3",73,179.8,"Left",1,1,0,200,"Left","NoStop",9,9,24,11,12,32,5,252
"3",74,139.8,"Left",1,1,0,200,"Left","NoStop",9,9,24,11,12,32,5,252
"3",75,193.3,"Right",1,1,0,200,"Right","NoStop",9,9,24,11,12,32,5,252
"3",76,145.2,"Left",1,1,0,200,"Left","NoStop",9,9,24,11,12,32,5,252
"3",77,363.5999999,"Right",1,1,0,200,"Right","NoStop",9,9,24,11,12,32,5,252
"3",78,224.8,"Right",1,1,0,200,"Right","NoStop",9,9,24,11,12,32,5,252
"3",79,148.6999999,"Left",1,1,0,200,"Left","NoStop",9,9,24,11,12,32,5,252
"3",80,178.1,"Right",1,0,1,200,"NoGo","Stop",9,9,24,11,12,32,5,252
"3",81,219.4,"Left",1,1,0,150,"Left","NoStop",9,9,24,11,12,32,5,252
"3",82,213.8000001,"Right",1,1,0,150,"Right","NoStop",9,9,24,11,12,32,5,252
"3",83,428.3,"Left",1,1,0,150,"Left","NoStop",9,9,24,11,12,32,5,252
"3",84,218,"Right",1,1,0,150,"Right","NoStop",9,9,24,11,12,32,5,252
"3",85,193.4,"Left",1,0,1,150,"NoGo","Stop",9,9,24,11,12,32,5,252
"3",86,1399.861,"NoGo",NA,1,0,100,"NoGo","Stop",9,9,24,11,12,32,5,252
"3",87,246.4,"Right",1,1,0,150,"Right","NoStop",9,9,24,11,12,32,5,252
"3",88,202.3,"Right",1,1,0,150,"Right","NoStop",9,9,24,11,12,32,5,252
"3",89,215.7,"Right",1,1,0,150,"Right","NoStop",9,9,24,11,12,32,5,252
"3",90,203.5,"Right",1,1,0,150,"Right","NoStop",9,9,24,11,12,32,5,252
"3",91,276.1999999,"Left",1,1,0,150,"Left","NoStop",9,9,24,11,12,32,5,252
"3",92,352.0999999,"Right",1,1,0,150,"Right","NoStop",9,9,24,11,12,32,5,252
"3",93,1349.506,"NoGo",NA,1,0,150,"NoGo","Stop",9,9,24,11,12,32,5,252
"3",94,142.1,"Right",1,1,0,200,"Right","NoStop",9,9,24,11,12,32,5,252
"3",95,158.7,"Right",1,0,1,200,"NoGo","Stop",9,9,24,11,12,32,5,252
"3",96,631.8000001,"Right",1,0,1,150,"Left","NoStop",9,9,24,11,12,32,5,252
"3",97,202,"Right",1,1,0,150,"Right","NoStop",9,9,24,11,12,32,5,252
"3",98,532.5,"Left",1,1,0,150,"Left","NoStop",9,9,24,11,12,32,5,252
"3",99,217.4,"Left",1,1,0,150,"Left","NoStop",9,9,24,11,12,32,5,252
"3",100,269.4,"Right",1,1,0,150,"Right","NoStop",9,9,24,11,12,32,5,252
"3",101,196.2,"Right",1,1,0,150,"Right","NoStop",9,9,24,11,12,32,5,252
"3",102,245.4,"Left",1,1,0,150,"Left","NoStop",9,9,24,11,12,32,5,252
"3",103,194.8000001,"Right",1,0,1,150,"NoGo","Stop",9,9,24,11,12,32,5,252
"3",104,212.0999999,"Right",1,1,0,100,"Right","NoStop",9,9,24,11,12,32,5,252
"3",105,294.6,"Left",1,1,0,100,"Left","NoStop",9,9,24,11,12,32,5,252
"3",106,290.8000001,"Left",1,1,0,100,"Left","NoStop",9,9,24,11,12,32,5,252
"3",107,269.1,"Right",1,1,0,100,"Right","NoStop",9,9,24,11,12,32,5,252
"3",108,453,"Left",1,1,0,100,"Left","NoStop",9,9,24,11,12,32,5,252
"3",109,203.5,"Right",1,0,1,100,"NoGo","Stop",9,9,24,11,12,32,5,252
"3",110,317.3,"Right",1,1,0,50,"Right","NoStop",9,9,24,11,12,32,5,252
"3",111,382.4,"Right",1,1,0,50,"Right","NoStop",9,9,24,11,12,32,5,252
"3",112,1449.484,"NoGo",NA,1,0,50,"NoGo","Stop",9,9,24,11,12,32,5,252
"3",113,424.0999999,"Left",1,1,0,100,"Left","NoStop",9,9,24,11,12,32,5,252
"3",114,209.6,"Right",1,1,0,100,"Right","NoStop",9,9,24,11,12,32,5,252
"3",115,1399.33,"NoGo",NA,1,0,100,"NoGo","Stop",9,9,24,11,12,32,5,252
"3",116,258.4,"Right",1,0,1,150,"NoGo","Stop",9,9,24,11,12,32,5,252
"3",117,490.3000001,"Left",1,1,0,100,"Left","NoStop",9,9,24,11,12,32,5,252
"3",118,351.4,"Right",1,1,0,100,"Right","NoStop",9,9,24,11,12,32,5,252
"3",119,256.2,"Right",1,1,0,100,"Right","NoStop",9,9,24,11,12,32,5,252
"3",120,246.0999999,"Right",1,1,0,100,"Right","NoStop",9,9,24,11,12,32,5,252
"3",121,1095.9,"Right",1,1,0,100,"Right","NoStop",9,9,24,11,12,32,5,252
"3",122,240,"Right",1,1,0,100,"Right","NoStop",9,9,24,11,12,32,5,252
"3",123,234.3,"Right",1,1,0,100,"Right","NoStop",9,9,24,11,12,32,5,252
"3",124,341.4,"Left",1,0,1,100,"NoGo","Stop",9,9,24,11,12,32,5,252
"3",125,391.6,"Right",1,1,0,50,"Right","NoStop",9,9,24,11,12,32,5,252
"3",126,330.3000001,"Right",1,1,0,50,"Right","NoStop",9,9,24,11,12,32,5,252
"3",127,452.6999999,"Left",1,1,0,50,"Left","NoStop",9,9,24,11,12,32,5,252
"3",128,335,"Right",1,1,0,50,"Right","NoStop",9,9,24,11,12,32,5,252
"3",129,327.1,"Left",1,1,0,50,"Left","NoStop",9,9,24,11,12,32,5,252
"3",130,1449.283,"NoGo",NA,1,0,50,"NoGo","Stop",9,9,24,11,12,32,5,252
"3",131,328.7,"Left",1,1,0,100,"Left","NoStop",9,9,24,11,12,32,5,252
"3",132,283.6,"Left",1,1,0,100,"Left","NoStop",9,9,24,11,12,32,5,252
"3",133,1399.487,"NoGo",NA,1,0,100,"NoGo","Stop",9,9,24,11,12,32,5,252
"3",134,248.3000001,"Right",1,1,0,150,"Right","NoStop",9,9,24,11,12,32,5,252
"3",135,285.7,"Left",1,1,0,150,"Left","NoStop",9,9,24,11,12,32,5,252
"3",136,267.4000001,"Left",1,1,0,150,"Left","NoStop",9,9,24,11,12,32,5,252
"3",137,370.2,"Right",1,1,0,150,"Right","NoStop",9,9,24,11,12,32,5,252
"3",138,248.5,"Right",1,0,1,150,"NoGo","Stop",9,9,24,11,12,32,5,252
"3",139,294.5,"Right",1,1,0,100,"Right","NoStop",9,9,24,11,12,32,5,252
"3",140,271.2,"Left",1,1,0,100,"Left","NoStop",9,9,24,11,12,32,5,252
"3",141,351.6999999,"Right",1,1,0,100,"Right","NoStop",9,9,24,11,12,32,5,252
"3",142,1399.534,"NoGo",NA,1,0,100,"NoGo","Stop",9,9,24,11,12,32,5,252
"3",143,233.9,"Right",1,1,0,150,"Right","NoStop",9,9,24,11,12,32,5,252
"3",144,362,"Right",1,1,0,150,"Right","NoStop",9,9,24,11,12,32,5,252
"3",145,263.1,"Left",1,1,0,150,"Left","NoStop",9,9,24,11,12,32,5,252
"3",146,382.1,"Right",1,1,0,150,"Right","NoStop",9,9,24,11,12,32,5,252
"3",147,319.9,"Left",1,1,0,150,"Left","NoStop",9,9,24,11,12,32,5,252
"3",148,276.8000001,"Right",1,0,1,150,"NoGo","Stop",9,9,24,11,12,32,5,252
"3",149,416.1999999,"Right",1,1,0,100,"Right","NoStop",9,9,24,11,12,32,5,252
"3",150,357.6,"Left",1,1,0,100,"Left","NoStop",9,9,24,11,12,32,5,252
"3",151,295.4000001,"Right",1,1,0,100,"Right","NoStop",9,9,24,11,12,32,5,252
"3",152,1399.34,"NoGo",NA,1,0,100,"NoGo","Stop",9,9,24,11,12,32,5,252
"3",153,278,"Right",1,1,0,150,"Right","NoStop",9,9,24,11,12,32,5,252
"3",154,307.5,"Left",1,1,0,150,"Left","NoStop",9,9,24,11,12,32,5,252
"3",155,189.0999999,"Right",1,1,0,150,"Right","NoStop",9,9,24,11,12,32,5,252
"3",156,190.3,"Right",1,0,1,150,"NoGo","Stop",9,9,24,11,12,32,5,252
"3",157,330.1,"Left",1,1,0,100,"Left","NoStop",9,9,24,11,12,32,5,252
"3",158,292.7,"Left",1,1,0,100,"Left","NoStop",9,9,24,11,12,32,5,252
"3",159,282.9,"Left",1,1,0,100,"Left","NoStop",9,9,24,11,12,32,5,252
"3",160,1399.552,"NoGo",NA,1,0,100,"NoGo","Stop",9,9,24,11,12,32,5,252
"3",161,1349.103,"NoGo",NA,1,0,150,"NoGo","Stop",9,9,24,11,12,32,5,252
"3",162,159.6,"Right",1,1,0,200,"Right","NoStop",9,9,24,11,12,32,5,252
"3",163,164.3,"Right",1,0,1,200,"NoGo","Stop",9,9,24,11,12,32,5,252
"3",164,1349.367,"NoGo",NA,1,0,150,"NoGo","Stop",9,9,24,11,12,32,5,252
"3",165,229.4,"Right",1,1,0,200,"Right","NoStop",9,9,24,11,12,32,5,252
"3",166,1299.444,"NoGo",NA,1,0,200,"NoGo","Stop",9,9,24,11,12,32,5,252
"3",167,177.5,"Right",1,0,1,250,"NoGo","Stop",9,9,24,11,12,32,5,252
"3",168,245.8000001,"Left",1,1,0,200,"Left","NoStop",9,9,24,11,12,32,5,252
"3",169,243.5,"Left",1,1,0,200,"Left","NoStop",9,9,24,11,12,32,5,252
"3",170,259.0999999,"Right",1,1,0,200,"Right","NoStop",9,9,24,11,12,32,5,252
"3",171,311.6,"Left",1,1,0,200,"Left","NoStop",9,9,24,11,12,32,5,252
"3",172,168.9,"Left",1,1,0,200,"Left","NoStop",9,9,24,11,12,32,5,252
"3",173,197.8,"Left",1,1,0,200,"Left","NoStop",9,9,24,11,12,32,5,252
"3",174,730,"Left",1,1,0,200,"Left","NoStop",9,9,24,11,12,32,5,252
"3",175,340.2,"Left",1,1,0,200,"Left","NoStop",9,9,24,11,12,32,5,252
"3",176,1299.17,"NoGo",NA,1,0,200,"NoGo","Stop",9,9,24,11,12,32,5,252
"3",177,176.2,"Left",1,1,0,250,"Left","NoStop",9,9,24,11,12,32,5,252
"3",178,133.6,"Left",1,1,0,250,"Left","NoStop",9,9,24,11,12,32,5,252
"3",179,178,"Right",1,1,0,250,"Right","NoStop",9,9,24,11,12,32,5,252
"3",180,194.6999999,"Left",1,1,0,250,"Left","NoStop",9,9,24,11,12,32,5,252
"3",181,169.5,"Left",1,1,0,250,"Left","NoStop",9,9,24,11,12,32,5,252
"3",182,118.9000001,"Right",1,0,1,250,"NoGo","Stop",9,9,24,11,12,32,5,252
"3",183,205,"Right",1,1,0,200,"Right","NoStop",9,9,24,11,12,32,5,252
"3",184,188.1999999,"Left",1,1,0,200,"Left","NoStop",9,9,24,11,12,32,5,252
"3",185,175.1999999,"Left",1,1,0,200,"Left","NoStop",9,9,24,11,12,32,5,252
"3",186,184,"Right",1,1,0,200,"Right","NoStop",9,9,24,11,12,32,5,252
"3",187,167.7,"Right",1,0,1,200,"NoGo","Stop",9,9,24,11,12,32,5,252
"3",188,246.1999999,"Left",1,0,1,150,"NoGo","Stop",9,9,24,11,12,32,5,252
"3",189,519,"Left",1,1,0,100,"Left","NoStop",9,9,24,11,12,32,5,252
"3",190,1399.773,"NoGo",NA,1,0,100,"NoGo","Stop",9,9,24,11,12,32,5,252
"3",191,223.4,"Right",1,1,0,150,"Right","NoStop",9,9,24,11,12,32,5,252
"3",192,1349.713,"NoGo",NA,1,0,150,"NoGo","Stop",9,9,24,11,12,32,5,252
"3",193,236.8,"Left",1,1,0,200,"Left","NoStop",9,9,24,11,12,32,5,252
"3",194,182.1,"Left",1,0,1,200,"NoGo","Stop",9,9,24,11,12,32,5,252
"3",195,325.0999999,"Right",1,1,0,150,"Right","NoStop",9,9,24,11,12,32,5,252
"3",196,1349.748,"NoGo",NA,1,0,150,"NoGo","Stop",9,9,24,11,12,32,5,252
"3",197,216.1999999,"Left",1,1,0,200,"Left","NoStop",9,9,24,11,12,32,5,252
"3",198,179.9000001,"Left",1,0,1,200,"NoGo","Stop",9,9,24,11,12,32,5,252
"3",199,350.4,"Left",1,1,0,150,"Left","NoStop",9,9,24,11,12,32,5,252
"3",200,204,"Left",1,1,0,150,"Left","NoStop",9,9,24,11,12,32,5,252
"3",201,212,"Left",1,0,1,150,"NoGo","Stop",9,9,24,11,12,32,5,252
"3",202,328.5,"Right",1,0,1,100,"NoGo","Stop",9,9,24,11,12,32,5,252
"3",203,382.4,"Left",1,1,0,50,"Left","NoStop",9,9,24,11,12,32,5,252
"3",204,340.4,"Right",1,1,0,50,"Right","NoStop",9,9,24,11,12,32,5,252
"3",205,1449.672,"NoGo",NA,1,0,50,"NoGo","Stop",9,9,24,11,12,32,5,252
"3",206,278.2,"Right",1,1,0,100,"Right","NoStop",9,9,24,11,12,32,5,252
"3",207,344.9,"Right",1,1,0,100,"Right","NoStop",9,9,24,11,12,32,5,252
"3",208,367.5999999,"Right",1,1,0,100,"Right","NoStop",9,9,24,11,12,32,5,252
"3",209,1399.548,"NoGo",NA,1,0,100,"NoGo","Stop",9,9,24,11,12,32,5,252
"3",210,281.4,"Right",1,1,0,150,"Right","NoStop",9,9,24,11,12,32,5,252
"3",211,1349.436,"NoGo",NA,1,0,150,"NoGo","Stop",9,9,24,11,12,32,5,252
"3",212,382,"Left",1,1,0,200,"Left","NoStop",9,9,24,11,12,32,5,252
"3",213,177.2,"Right",1,1,0,200,"Right","NoStop",9,9,24,11,12,32,5,252
"3",214,304.5,"Left",1,1,0,200,"Left","NoStop",9,9,24,11,12,32,5,252
"3",215,200.1,"Right",1,1,0,200,"Right","NoStop",9,9,24,11,12,32,5,252
"3",216,197.9,"Left",1,1,0,200,"Left","NoStop",9,9,24,11,12,32,5,252
"3",217,155.5,"Left",1,0,1,200,"NoGo","Stop",9,9,24,11,12,32,5,252
"3",218,266.2,"Left",1,1,0,150,"Left","NoStop",9,9,24,11,12,32,5,252
"3",219,197.5,"Left",1,1,0,150,"Left","NoStop",9,9,24,11,12,32,5,252
"3",220,276.9,"Right",1,1,0,150,"Right","NoStop",9,9,24,11,12,32,5,252
"3",221,1350.279,"NoGo",NA,1,0,150,"NoGo","Stop",9,9,24,11,12,32,5,252
"3",222,249.5,"Left",1,1,0,200,"Left","NoStop",9,9,24,11,12,32,5,252
"3",223,160.5,"Left",1,0,1,200,"NoGo","Stop",9,9,24,11,12,32,5,252
"3",224,248.5999999,"Left",1,1,0,150,"Left","NoStop",9,9,24,11,12,32,5,252
"3",225,1349.489,"NoGo",NA,1,0,150,"NoGo","Stop",9,9,24,11,12,32,5,252
"3",226,375,"Left",1,1,0,200,"Left","NoStop",9,9,24,11,12,32,5,252
"3",227,272.5999999,"Right",1,1,0,200,"Right","NoStop",9,9,24,11,12,32,5,252
"3",228,447.5,"Left",1,1,0,200,"Left","NoStop",9,9,24,11,12,32,5,252
"3",229,1299.546,"NoGo",NA,1,0,200,"NoGo","Stop",9,9,24,11,12,32,5,252
"3",230,153.3000001,"Left",1,1,0,250,"Left","NoStop",9,9,24,11,12,32,5,252
"3",231,322.3000001,"Right",1,1,0,250,"Right","NoStop",9,9,24,11,12,32,5,252
"3",232,1249.077,"NoGo",NA,0,1,250,"Right","NoStop",9,9,24,11,12,32,5,252
"3",233,323.8,"Right",1,1,0,250,"Right","NoStop",9,9,24,11,12,32,5,252
"3",234,183.6,"Right",1,0,1,250,"NoGo","Stop",9,9,24,11,12,32,5,252
"3",235,215.1,"Left",1,1,0,200,"Left","NoStop",9,9,24,11,12,32,5,252
"3",236,258.0999999,"Left",1,0,1,200,"NoGo","Stop",9,9,24,11,12,32,5,252
"3",237,355.7,"Right",1,1,0,150,"Right","NoStop",9,9,24,11,12,32,5,252
"3",238,1349.095,"NoGo",NA,0,1,150,"Left","NoStop",9,9,24,11,12,32,5,252
"3",239,277.4,"Left",1,1,0,150,"Left","NoStop",9,9,24,11,12,32,5,252
"3",240,682.4,"Left",1,1,0,150,"Left","NoStop",9,9,24,11,12,32,5,252
"4",1,36,"Right",1,1,0,250,"Right","NoStop",6,6,13,2,12,30,12,758
"4",2,41.5,"Right",1,0,1,250,"NoGo","Stop",6,6,13,2,12,30,12,758
"4",3,137.7,"Left",1,0,1,200,"NoGo","Stop",6,6,13,2,12,30,12,758
"4",4,45.5,"Right",1,0,1,150,"Left","NoStop",6,6,13,2,12,30,12,758
"4",5,183.9,"Left",1,0,1,150,"NoGo","Stop",6,6,13,2,12,30,12,758
"4",6,314.2,"Left",1,1,0,100,"Left","NoStop",6,6,13,2,12,30,12,758
"4",7,187,"Left",1,1,0,100,"Left","NoStop",6,6,13,2,12,30,12,758
"4",8,170.1,"Left",1,0,1,100,"NoGo","Stop",6,6,13,2,12,30,12,758
"4",9,281.6,"Right",1,1,0,50,"Right","NoStop",6,6,13,2,12,30,12,758
"4",10,226.3,"Right",1,0,1,50,"Left","NoStop",6,6,13,2,12,30,12,758
"4",11,274.3,"Right",1,1,0,50,"Right","NoStop",6,6,13,2,12,30,12,758
"4",12,194.3,"Left",1,1,0,50,"Left","NoStop",6,6,13,2,12,30,12,758
"4",13,236,"Right",1,1,0,50,"Right","NoStop",6,6,13,2,12,30,12,758
"4",14,217.5,"Left",1,1,0,50,"Left","NoStop",6,6,13,2,12,30,12,758
"4",15,234.6,"Left",1,1,0,50,"Left","NoStop",6,6,13,2,12,30,12,758
"4",16,198.6,"Left",1,0,1,50,"Right","NoStop",6,6,13,2,12,30,12,758
"4",17,285.4,"Right",1,1,0,50,"Right","NoStop",6,6,13,2,12,30,12,758
"4",18,227.7,"Left",1,1,0,50,"Left","NoStop",6,6,13,2,12,30,12,758
"4",19,233.6,"Right",1,1,0,50,"Right","NoStop",6,6,13,2,12,30,12,758
"4",20,347.9,"Right",1,1,0,50,"Right","NoStop",6,6,13,2,12,30,12,758
"4",21,230.3,"Left",1,0,1,50,"NoGo","Stop",6,6,13,2,12,30,12,758
"4",22,253.5,"Right",1,0,1,50,"NoGo","Stop",6,6,13,2,12,30,12,758
"4",23,269.1,"Left",1,1,0,50,"Left","NoStop",6,6,13,2,12,30,12,758
"4",24,216.3,"Right",1,1,0,50,"Right","NoStop",6,6,13,2,12,30,12,758
"4",25,179,"Left",1,1,0,50,"Left","NoStop",6,6,13,2,12,30,12,758
"4",26,339.6,"Left",1,1,0,50,"Left","NoStop",6,6,13,2,12,30,12,758
"4",27,228.5,"Left",1,1,0,50,"Left","NoStop",6,6,13,2,12,30,12,758
"4",28,467.6,"Right",1,0,1,50,"NoGo","Stop",6,6,13,2,12,30,12,758
"4",29,971.6,"Right",1,0,1,50,"NoGo","Stop",6,6,13,2,12,30,12,758
"4",30,370.3,"Right",1,1,0,50,"Right","NoStop",6,6,13,2,12,30,12,758
"4",31,804.6,"Right",1,0,1,50,"NoGo","Stop",6,6,13,2,12,30,12,758
"4",32,392.5,"Right",1,1,0,50,"Right","NoStop",6,6,13,2,12,30,12,758
"4",33,359,"Left",1,1,0,50,"Left","NoStop",6,6,13,2,12,30,12,758
"4",34,309,"Left",1,1,0,50,"Left","NoStop",6,6,13,2,12,30,12,758
"4",35,761.7,"Left",1,0,1,50,"NoGo","Stop",6,6,13,2,12,30,12,758
"4",36,242.9,"Right",1,1,0,50,"Right","NoStop",6,6,13,2,12,30,12,758
"4",37,281.9,"Right",1,1,0,50,"Right","NoStop",6,6,13,2,12,30,12,758
"4",38,246.4,"Right",1,1,0,50,"Right","NoStop",6,6,13,2,12,30,12,758
"4",39,192.5,"Right",1,0,1,50,"Left","NoStop",6,6,13,2,12,30,12,758
"4",40,349.6,"Left",1,1,0,50,"Left","NoStop",6,6,13,2,12,30,12,758
"4",41,488.3,"Left",1,0,1,50,"NoGo","Stop",6,6,13,2,12,30,12,758
"4",42,766.4,"Left",1,1,0,50,"Left","NoStop",6,6,13,2,12,30,12,758
"4",43,299.3,"Right",1,1,0,50,"Right","NoStop",6,6,13,2,12,30,12,758
"4",44,263.9,"Right",1,1,0,50,"Right","NoStop",6,6,13,2,12,30,12,758
"4",45,196,"Right",1,0,1,50,"Left","NoStop",6,6,13,2,12,30,12,758
"4",46,847.4,"Left",1,0,1,50,"NoGo","Stop",6,6,13,2,12,30,12,758
"4",47,300.8,"Right",1,1,0,50,"Right","NoStop",6,6,13,2,12,30,12,758
"4",48,606.3,"Left",1,1,0,50,"Left","NoStop",6,6,13,2,12,30,12,758
"4",49,302.9,"Left",1,1,0,50,"Left","NoStop",6,6,13,2,12,30,12,758
"4",50,506.6,"Right",1,1,0,50,"Right","NoStop",6,6,13,2,12,30,12,758
"4",51,297.3,"Left",1,1,0,50,"Left","NoStop",6,6,13,2,12,30,12,758
"4",52,287.5,"Right",1,0,1,50,"NoGo","Stop",6,6,13,2,12,30,12,758
"4",53,334.3,"Right",1,1,0,50,"Right","NoStop",6,6,13,2,12,30,12,758
"4",54,274,"Left",1,1,0,50,"Left","NoStop",6,6,13,2,12,30,12,758
"4",55,333,"Left",1,1,0,50,"Left","NoStop",6,6,13,2,12,30,12,758
"4",56,307.4,"Right",1,1,0,50,"Right","NoStop",6,6,13,2,12,30,12,758
"4",57,766.9,"Left",1,0,1,50,"NoGo","Stop",6,6,13,2,12,30,12,758
"4",58,325.3,"Left",1,1,0,50,"Left","NoStop",6,6,13,2,12,30,12,758
"4",59,285.6,"Left",1,1,0,50,"Left","NoStop",6,6,13,2,12,30,12,758
"4",60,297.8,"Right",1,1,0,50,"Right","NoStop",6,6,13,2,12,30,12,758
"4",61,263,"Right",1,1,0,50,"Right","NoStop",6,6,13,2,12,30,12,758
"4",62,291.9,"Right",1,0,1,50,"NoGo","Stop",6,6,13,2,12,30,12,758
"4",63,261.2,"Right",1,1,0,50,"Right","NoStop",6,6,13,2,12,30,12,758
"4",64,265.4,"Right",1,1,0,50,"Right","NoStop",6,6,13,2,12,30,12,758
"4",65,317.5,"Left",1,1,0,50,"Left","NoStop",6,6,13,2,12,30,12,758
"4",66,255.6,"Left",1,1,0,50,"Left","NoStop",6,6,13,2,12,30,12,758
"4",67,327,"Right",1,1,0,50,"Right","NoStop",6,6,13,2,12,30,12,758
"4",68,736,"Left",1,0,1,50,"NoGo","Stop",6,6,13,2,12,30,12,758
"4",69,331,"Left",1,1,0,50,"Left","NoStop",6,6,13,2,12,30,12,758
"4",70,333,"Left",1,1,0,50,"Left","NoStop",6,6,13,2,12,30,12,758
"4",71,318.3,"Right",1,1,0,50,"Right","NoStop",6,6,13,2,12,30,12,758
"4",72,275.9,"Right",1,1,0,50,"Right","NoStop",6,6,13,2,12,30,12,758
"4",73,311,"Left",1,0,1,50,"NoGo","Stop",6,6,13,2,12,30,12,758
"4",74,327.9,"Left",1,1,0,50,"Left","NoStop",6,6,13,2,12,30,12,758
"4",75,726.4,"Right",1,0,1,50,"NoGo","Stop",6,6,13,2,12,30,12,758
"4",76,374.3,"Left",1,1,0,50,"Left","NoStop",6,6,13,2,12,30,12,758
"4",77,283.2,"Left",1,1,0,50,"Left","NoStop",6,6,13,2,12,30,12,758
"4",78,729.4,"Left",1,0,1,50,"NoGo","Stop",6,6,13,2,12,30,12,758
"4",79,228.1,"Right",1,0,1,50,"Left","NoStop",6,6,13,2,12,30,12,758
"4",80,306,"Right",1,1,0,50,"Right","NoStop",6,6,13,2,12,30,12,758
"4",81,299.8,"Left",1,1,0,50,"Left","NoStop",6,6,13,2,12,30,12,758
"4",82,766.5,"Right",1,0,1,50,"NoGo","Stop",6,6,13,2,12,30,12,758
"4",83,234,"Left",1,0,1,50,"NoGo","Stop",6,6,13,2,12,30,12,758
"4",84,315.5,"Right",1,1,0,50,"Right","NoStop",6,6,13,2,12,30,12,758
"4",85,751.7,"Left",1,0,1,50,"NoGo","Stop",6,6,13,2,12,30,12,758
"4",86,247.8,"Right",1,1,0,50,"Right","NoStop",6,6,13,2,12,30,12,758
"4",87,304,"Right",1,0,1,50,"NoGo","Stop",6,6,13,2,12,30,12,758
"4",88,451.1,"Right",1,1,0,50,"Right","NoStop",6,6,13,2,12,30,12,758
"4",89,843.7,"Right",1,0,1,50,"NoGo","Stop",6,6,13,2,12,30,12,758
"4",90,331.5,"Left",1,1,0,50,"Left","NoStop",6,6,13,2,12,30,12,758
"4",91,366.2,"Right",1,1,0,50,"Right","NoStop",6,6,13,2,12,30,12,758
"4",92,359,"Right",1,1,0,50,"Right","NoStop",6,6,13,2,12,30,12,758
"4",93,344,"Left",1,0,1,50,"NoGo","Stop",6,6,13,2,12,30,12,758
"4",94,288.8,"Right",1,1,0,50,"Right","NoStop",6,6,13,2,12,30,12,758
"4",95,741,"Left",1,0,1,50,"NoGo","Stop",6,6,13,2,12,30,12,758
"4",96,846.2,"Left",1,0,1,50,"NoGo","Stop",6,6,13,2,12,30,12,758
"4",97,272.1,"Right",1,1,0,50,"Right","NoStop",6,6,13,2,12,30,12,758
"4",98,225.5,"Right",1,1,0,50,"Right","NoStop",6,6,13,2,12,30,12,758
"4",99,736.5,"Right",1,0,1,50,"NoGo","Stop",6,6,13,2,12,30,12,758
"4",100,620,"Right",1,1,0,50,"Right","NoStop",6,6,13,2,12,30,12,758
"4",101,281.9,"Right",1,1,0,50,"Right","NoStop",6,6,13,2,12,30,12,758
"4",102,353.1,"Left",1,0,1,50,"NoGo","Stop",6,6,13,2,12,30,12,758
"4",103,356.2,"Right",1,0,1,50,"NoGo","Stop",6,6,13,2,12,30,12,758
"4",104,829.8,"Left",1,0,1,50,"NoGo","Stop",6,6,13,2,12,30,12,758
"4",105,426.3,"Right",1,1,0,50,"Right","NoStop",6,6,13,2,12,30,12,758
"4",106,712.6,"Right",1,0,1,50,"NoGo","Stop",6,6,13,2,12,30,12,758
"4",107,315.7,"Left",1,0,1,50,"NoGo","Stop",6,6,13,2,12,30,12,758
"4",108,373.4,"Right",1,1,0,50,"Right","NoStop",6,6,13,2,12,30,12,758
"4",109,724.6,"Left",1,0,1,50,"NoGo","Stop",6,6,13,2,12,30,12,758
"4",110,381.8,"Right",1,1,0,50,"Right","NoStop",6,6,13,2,12,30,12,758
"4",111,716.3,"Right",1,0,1,50,"NoGo","Stop",6,6,13,2,12,30,12,758
"4",112,458.1,"Left",1,1,0,50,"Left","NoStop",6,6,13,2,12,30,12,758
"4",113,350.8,"Left",1,0,1,50,"NoGo","Stop",6,6,13,2,12,30,12,758
"4",114,406.5,"Right",1,1,0,50,"Right","NoStop",6,6,13,2,12,30,12,758
"4",115,316.2,"Right",1,1,0,50,"Right","NoStop",6,6,13,2,12,30,12,758
"4",116,505.9,"Left",1,1,0,50,"Left","NoStop",6,6,13,2,12,30,12,758
"4",117,285.2,"Left",1,0,1,50,"NoGo","Stop",6,6,13,2,12,30,12,758
"4",118,312,"Right",1,1,0,50,"Right","NoStop",6,6,13,2,12,30,12,758
"4",119,485.3,"Left",1,1,0,50,"Left","NoStop",6,6,13,2,12,30,12,758
"4",120,257.7,"Right",1,1,0,50,"Right","NoStop",6,6,13,2,12,30,12,758
"4",121,333.6,"Left",1,1,0,50,"Left","NoStop",6,6,13,2,12,30,12,758
"4",122,253.8,"Right",1,1,0,50,"Right","NoStop",6,6,13,2,12,30,12,758
"4",123,229.4,"Left",1,1,0,50,"Left","NoStop",6,6,13,2,12,30,12,758
"4",124,265.2,"Left",1,1,0,50,"Left","NoStop",6,6,13,2,12,30,12,758
"4",125,264.5,"Right",1,1,0,50,"Right","NoStop",6,6,13,2,12,30,12,758
"4",126,242.8,"Left",1,1,0,50,"Left","NoStop",6,6,13,2,12,30,12,758
"4",127,342.1,"Left",1,1,0,50,"Left","NoStop",6,6,13,2,12,30,12,758
"4",128,293.5,"Right",1,1,0,50,"Right","NoStop",6,6,13,2,12,30,12,758
"4",129,342.5,"Right",1,1,0,50,"Right","NoStop",6,6,13,2,12,30,12,758
"4",130,317.6,"Right",1,1,0,50,"Right","NoStop",6,6,13,2,12,30,12,758
"4",131,313.2,"Right",1,0,1,50,"NoGo","Stop",6,6,13,2,12,30,12,758
"4",132,319.6,"Left",1,1,0,50,"Left","NoStop",6,6,13,2,12,30,12,758
"4",133,340.4,"Left",1,1,0,50,"Left","NoStop",6,6,13,2,12,30,12,758
"4",134,258.4,"Left",1,1,0,50,"Left","NoStop",6,6,13,2,12,30,12,758
"4",135,333,"Right",1,1,0,50,"Right","NoStop",6,6,13,2,12,30,12,758
"4",136,314.4,"Right",1,0,1,50,"NoGo","Stop",6,6,13,2,12,30,12,758
"4",137,293,"Right",1,1,0,50,"Right","NoStop",6,6,13,2,12,30,12,758
"4",138,272.9,"Right",1,1,0,50,"Right","NoStop",6,6,13,2,12,30,12,758
"4",139,356.1,"Left",1,1,0,50,"Left","NoStop",6,6,13,2,12,30,12,758
"4",140,298.6,"Right",1,1,0,50,"Right","NoStop",6,6,13,2,12,30,12,758
"4",141,308.3,"Right",1,1,0,50,"Right","NoStop",6,6,13,2,12,30,12,758
"4",142,228.5,"Left",1,0,1,50,"NoGo","Stop",6,6,13,2,12,30,12,758
"4",143,310.5,"Left",1,1,0,50,"Left","NoStop",6,6,13,2,12,30,12,758
"4",144,314.1,"Right",1,1,0,50,"Right","NoStop",6,6,13,2,12,30,12,758
"4",145,272.7,"Left",1,1,0,50,"Left","NoStop",6,6,13,2,12,30,12,758
"4",146,298.8,"Left",1,1,0,50,"Left","NoStop",6,6,13,2,12,30,12,758
"4",147,263.9,"Left",1,1,0,50,"Left","NoStop",6,6,13,2,12,30,12,758
"4",148,274.1,"Right",1,1,0,50,"Right","NoStop",6,6,13,2,12,30,12,758
"4",149,303.1,"Right",1,1,0,50,"Right","NoStop",6,6,13,2,12,30,12,758
"4",150,263.4,"Right",1,0,1,50,"NoGo","Stop",6,6,13,2,12,30,12,758
"4",151,249.2,"Left",1,1,0,50,"Left","NoStop",6,6,13,2,12,30,12,758
"4",152,725.9,"Right",1,0,1,50,"NoGo","Stop",6,6,13,2,12,30,12,758
"4",153,336.2,"Left",1,1,0,50,"Left","NoStop",6,6,13,2,12,30,12,758
"4",154,274.6,"Left",1,1,0,50,"Left","NoStop",6,6,13,2,12,30,12,758
"4",155,520,"Right",1,1,0,50,"Right","NoStop",6,6,13,2,12,30,12,758
"4",156,311.9,"Right",1,1,0,50,"Right","NoStop",6,6,13,2,12,30,12,758
"4",157,710.7,"Right",1,0,1,50,"NoGo","Stop",6,6,13,2,12,30,12,758
"4",158,290.5,"Left",1,0,1,50,"NoGo","Stop",6,6,13,2,12,30,12,758
"4",159,726.7,"Left",1,0,1,50,"NoGo","Stop",6,6,13,2,12,30,12,758
"4",160,302.3,"Right",1,1,0,50,"Right","NoStop",6,6,13,2,12,30,12,758
"4",161,858.1,"Left",1,0,1,50,"NoGo","Stop",6,6,13,2,12,30,12,758
"4",162,357.2,"Right",1,1,0,50,"Right","NoStop",6,6,13,2,12,30,12,758
"4",163,266.4,"Left",1,1,0,50,"Left","NoStop",6,6,13,2,12,30,12,758
"4",164,351.2,"Left",1,1,0,50,"Left","NoStop",6,6,13,2,12,30,12,758
"4",165,349.1,"Left",1,1,0,50,"Left","NoStop",6,6,13,2,12,30,12,758
"4",166,295.2,"Left",1,1,0,50,"Left","NoStop",6,6,13,2,12,30,12,758
"4",167,312,"Left",1,1,0,50,"Left","NoStop",6,6,13,2,12,30,12,758
"4",168,255.6,"Left",1,1,0,50,"Left","NoStop",6,6,13,2,12,30,12,758
"4",169,359.5,"Right",1,1,0,50,"Right","NoStop",6,6,13,2,12,30,12,758
"4",170,437.8,"Left",1,1,0,50,"Left","NoStop",6,6,13,2,12,30,12,758
"4",171,413.7,"Left",1,1,0,50,"Left","NoStop",6,6,13,2,12,30,12,758
"4",172,301,"Right",1,1,0,50,"Right","NoStop",6,6,13,2,12,30,12,758
"4",173,247,"Left",1,1,0,50,"Left","NoStop",6,6,13,2,12,30,12,758
"4",174,358.1,"Right",1,1,0,50,"Right","NoStop",6,6,13,2,12,30,12,758
"4",175,304.7,"Left",1,1,0,50,"Left","NoStop",6,6,13,2,12,30,12,758
"4",176,278.9,"Right",1,1,0,50,"Right","NoStop",6,6,13,2,12,30,12,758
"4",177,342.7,"Right",1,1,0,50,"Right","NoStop",6,6,13,2,12,30,12,758
"4",178,250.3,"Left",1,1,0,50,"Left","NoStop",6,6,13,2,12,30,12,758
"4",179,330,"Right",1,0,1,50,"NoGo","Stop",6,6,13,2,12,30,12,758
"4",180,288.7,"Left",1,1,0,50,"Left","NoStop",6,6,13,2,12,30,12,758
"4",181,355.4,"Right",1,1,0,50,"Right","NoStop",6,6,13,2,12,30,12,758
"4",182,265.9,"Left",1,1,0,50,"Left","NoStop",6,6,13,2,12,30,12,758
"4",183,254.2,"Right",1,0,1,50,"NoGo","Stop",6,6,13,2,12,30,12,758
"4",184,255.1,"Left",1,1,0,50,"Left","NoStop",6,6,13,2,12,30,12,758
"4",185,268.4,"Left",1,1,0,50,"Left","NoStop",6,6,13,2,12,30,12,758
"4",186,724.4,"Right",1,0,1,50,"NoGo","Stop",6,6,13,2,12,30,12,758
"4",187,321.8,"Right",1,1,0,50,"Right","NoStop",6,6,13,2,12,30,12,758
"4",188,297.5,"Left",1,1,0,50,"Left","NoStop",6,6,13,2,12,30,12,758
"4",189,277.2,"Left",1,1,0,50,"Left","NoStop",6,6,13,2,12,30,12,758
"4",190,709,"Right",1,0,1,50,"NoGo","Stop",6,6,13,2,12,30,12,758
"4",191,322.3,"Right",1,1,0,50,"Right","NoStop",6,6,13,2,12,30,12,758
"4",192,333.6,"Right",1,0,1,50,"NoGo","Stop",6,6,13,2,12,30,12,758
"4",193,424.5,"Right",1,1,0,50,"Right","NoStop",6,6,13,2,12,30,12,758
"4",194,298.5,"Right",1,1,0,50,"Right","NoStop",6,6,13,2,12,30,12,758
"4",195,347,"Left",1,1,0,50,"Left","NoStop",6,6,13,2,12,30,12,758
"4",196,274.8,"Left",1,1,0,50,"Left","NoStop",6,6,13,2,12,30,12,758
"4",197,280.5,"Left",1,1,0,50,"Left","NoStop",6,6,13,2,12,30,12,758
"4",198,297.8,"Right",1,1,0,50,"Right","NoStop",6,6,13,2,12,30,12,758
"4",199,261.6,"Left",1,0,1,50,"NoGo","Stop",6,6,13,2,12,30,12,758
"4",200,264.8,"Right",1,1,0,50,"Right","NoStop",6,6,13,2,12,30,12,758
"4",201,729.9,"Right",1,0,1,50,"NoGo","Stop",6,6,13,2,12,30,12,758
"4",202,254.4,"Left",1,1,0,50,"Left","NoStop",6,6,13,2,12,30,12,758
"4",203,266.7,"Right",1,1,0,50,"Right","NoStop",6,6,13,2,12,30,12,758
"4",204,630.1,"Left",1,0,1,50,"NoGo","Stop",6,6,13,2,12,30,12,758
"4",205,255.2,"Right",1,1,0,50,"Right","NoStop",6,6,13,2,12,30,12,758
"4",206,358,"Right",1,1,0,50,"Right","NoStop",6,6,13,2,12,30,12,758
"4",207,481.5,"Left",1,1,0,50,"Left","NoStop",6,6,13,2,12,30,12,758
"4",208,230.4,"Right",1,1,0,50,"Right","NoStop",6,6,13,2,12,30,12,758
"4",209,263.3,"Right",1,1,0,50,"Right","NoStop",6,6,13,2,12,30,12,758
"4",210,212.9,"Right",1,1,0,50,"Right","NoStop",6,6,13,2,12,30,12,758
"4",211,269.1,"Right",1,0,1,50,"Left","NoStop",6,6,13,2,12,30,12,758
"4",212,363.7,"Right",1,1,0,50,"Right","NoStop",6,6,13,2,12,30,12,758
"4",213,727.4,"Right",1,0,1,50,"NoGo","Stop",6,6,13,2,12,30,12,758
"4",214,303.3,"Right",1,1,0,50,"Right","NoStop",6,6,13,2,12,30,12,758
"4",215,304.4,"Right",1,1,0,50,"Right","NoStop",6,6,13,2,12,30,12,758
"4",216,278.6,"Left",1,0,1,50,"NoGo","Stop",6,6,13,2,12,30,12,758
"4",217,190.8,"Left",1,1,0,50,"Left","NoStop",6,6,13,2,12,30,12,758
"4",218,240.1,"Left",1,1,0,50,"Left","NoStop",6,6,13,2,12,30,12,758
"4",219,397.7,"Left",1,1,0,50,"Left","NoStop",6,6,13,2,12,30,12,758
"4",220,265.7,"Left",1,1,0,50,"Left","NoStop",6,6,13,2,12,30,12,758
"4",221,387.5,"Right",1,1,0,50,"Right","NoStop",6,6,13,2,12,30,12,758
"4",222,287.1,"Right",1,0,1,50,"NoGo","Stop",6,6,13,2,12,30,12,758
"4",223,702.3,"Right",1,0,1,50,"NoGo","Stop",6,6,13,2,12,30,12,758
"4",224,311.7,"Left",1,1,0,50,"Left","NoStop",6,6,13,2,12,30,12,758
"4",225,332.4,"Left",1,1,0,50,"Left","NoStop",6,6,13,2,12,30,12,758
"4",226,334.5,"Right",1,1,0,50,"Right","NoStop",6,6,13,2,12,30,12,758
"4",227,403.2,"Left",1,1,0,50,"Left","NoStop",6,6,13,2,12,30,12,758
"4",228,278.2,"Right",1,1,0,50,"Right","NoStop",6,6,13,2,12,30,12,758
"4",229,255.2,"Left",1,1,0,50,"Left","NoStop",6,6,13,2,12,30,12,758
"4",230,240.3,"Right",1,1,0,50,"Right","NoStop",6,6,13,2,12,30,12,758
"4",231,253.5,"Left",1,0,1,50,"NoGo","Stop",6,6,13,2,12,30,12,758
"4",232,218.3,"Right",1,1,0,50,"Right","NoStop",6,6,13,2,12,30,12,758
"4",233,334.5,"Left",1,1,0,50,"Left","NoStop",6,6,13,2,12,30,12,758
"4",234,374.6,"Left",1,1,0,50,"Left","NoStop",6,6,13,2,12,30,12,758
"4",235,275.4,"Left",1,1,0,50,"Left","NoStop",6,6,13,2,12,30,12,758
"4",236,315,"Right",1,1,0,50,"Right","NoStop",6,6,13,2,12,30,12,758
"4",237,291.3,"Left",1,1,0,50,"Left","NoStop",6,6,13,2,12,30,12,758
"4",238,720.7,"Right",1,0,1,50,"NoGo","Stop",6,6,13,2,12,30,12,758
"4",239,258.4,"Left",1,1,0,50,"Left","NoStop",6,6,13,2,12,30,12,758
"4",240,284.7,"Right",1,1,0,50,"Right","NoStop",6,6,13,2,12,30,12,758
"16",1,518.9,"Right",1,1,0,250,"Right","NoStop",12,14,28,18,17,31,16,277
"16",2,85.5,"Left",1,1,0,250,"Left","NoStop",12,14,28,18,17,31,16,277
"16",3,167.0999999,"Right",1,0,1,250,"NoGo","Stop",12,14,28,18,17,31,16,277
"16",4,287,"Left",1,1,0,200,"Left","NoStop",12,14,28,18,17,31,16,277
"16",5,194.8,"Right",1,1,0,200,"Right","NoStop",12,14,28,18,17,31,16,277
"16",6,221.1,"Left",1,0,1,200,"NoGo","Stop",12,14,28,18,17,31,16,277
"16",7,327.1,"Left",1,1,0,150,"Left","NoStop",12,14,28,18,17,31,16,277
"16",8,258.4,"Left",1,1,0,150,"Left","NoStop",12,14,28,18,17,31,16,277
"16",9,811.8,"Right",1,0,1,150,"NoGo","Stop",12,14,28,18,17,31,16,277
"16",10,647.6,"Right",1,1,0,100,"Right","NoStop",12,14,28,18,17,31,16,277
"16",11,353.6999999,"Right",1,1,0,100,"Right","NoStop",12,14,28,18,17,31,16,277
"16",12,1302.3,"Right",1,1,0,100,"Right","NoStop",12,14,28,18,17,31,16,277
"16",13,278.4000001,"Right",1,1,0,100,"Right","NoStop",12,14,28,18,17,31,16,277
"16",14,1401.444,"NoGo",NA,1,0,100,"NoGo","Stop",12,14,28,18,17,31,16,277
"16",15,1351.326,"NoGo",NA,1,0,150,"NoGo","Stop",12,14,28,18,17,31,16,277
"16",16,213.8,"Left",1,1,0,200,"Left","NoStop",12,14,28,18,17,31,16,277
"16",17,1301.334,"NoGo",NA,1,0,200,"NoGo","Stop",12,14,28,18,17,31,16,277
"16",18,102.8,"Right",1,1,0,250,"Right","NoStop",12,14,28,18,17,31,16,277
"16",19,376.1,"Left",1,1,0,250,"Left","NoStop",12,14,28,18,17,31,16,277
"16",20,463.7,"Right",1,1,0,250,"Right","NoStop",12,14,28,18,17,31,16,277
"16",21,1251.272,"NoGo",NA,1,0,250,"NoGo","Stop",12,14,28,18,17,31,16,277
"16",22,255.4000001,"Left",1,1,0,300,"Left","NoStop",12,14,28,18,17,31,16,277
"16",23,1201.083,"NoGo",NA,1,0,300,"NoGo","Stop",12,14,28,18,17,31,16,277
"16",24,180.4,"Right",1,1,0,350,"Right","NoStop",12,14,28,18,17,31,16,277
"16",25,541,"Right",1,1,0,350,"Right","NoStop",12,14,28,18,17,31,16,277
"16",26,305.7,"Right",1,1,0,350,"Right","NoStop",12,14,28,18,17,31,16,277
"16",27,177,"Left",1,0,1,350,"NoGo","Stop",12,14,28,18,17,31,16,277
"16",28,340.8,"Right",1,1,0,300,"Right","NoStop",12,14,28,18,17,31,16,277
"16",29,387.3,"Right",1,1,0,300,"Right","NoStop",12,14,28,18,17,31,16,277
"16",30,259.6999999,"Right",1,1,0,300,"Right","NoStop",12,14,28,18,17,31,16,277
"16",31,1201.228,"NoGo",NA,1,0,300,"NoGo","Stop",12,14,28,18,17,31,16,277
"16",32,129.5999999,"Right",1,1,0,350,"Right","NoStop",12,14,28,18,17,31,16,277
"16",33,1151.172,"NoGo",NA,1,0,350,"NoGo","Stop",12,14,28,18,17,31,16,277
"16",34,2.299999952,"Right",1,1,0,400,"Right","NoStop",12,14,28,18,17,31,16,277
"16",35,391.8,"Left",1,1,0,400,"Left","NoStop",12,14,28,18,17,31,16,277
"16",36,180.6,"Right",1,0,1,400,"NoGo","Stop",12,14,28,18,17,31,16,277
"16",37,561.4,"Left",1,1,0,350,"Left","NoStop",12,14,28,18,17,31,16,277
"16",38,395.6,"Left",1,1,0,350,"Left","NoStop",12,14,28,18,17,31,16,277
"16",39,244.6,"Left",1,1,0,350,"Left","NoStop",12,14,28,18,17,31,16,277
"16",40,247.9,"Right",1,0,1,350,"NoGo","Stop",12,14,28,18,17,31,16,277
"16",41,1201.315,"NoGo",NA,1,0,300,"NoGo","Stop",12,14,28,18,17,31,16,277
"16",42,114.1999999,"Right",1,0,1,350,"NoGo","Stop",12,14,28,18,17,31,16,277
"16",43,547.1999999,"Left",1,1,0,300,"Left","NoStop",12,14,28,18,17,31,16,277
"16",44,536.4,"Left",1,1,0,300,"Left","NoStop",12,14,28,18,17,31,16,277
"16",45,483.0999999,"Left",1,1,0,300,"Left","NoStop",12,14,28,18,17,31,16,277
"16",46,472,"Left",1,1,0,300,"Left","NoStop",12,14,28,18,17,31,16,277
"16",47,229.5,"Right",1,0,1,300,"NoGo","Stop",12,14,28,18,17,31,16,277
"16",48,1251.288,"NoGo",NA,1,0,250,"NoGo","Stop",12,14,28,18,17,31,16,277
"16",49,370.8000001,"Left",1,1,0,300,"Left","NoStop",12,14,28,18,17,31,16,277
"16",50,390.1,"Left",1,1,0,300,"Left","NoStop",12,14,28,18,17,31,16,277
"16",51,415.4,"Right",1,1,0,300,"Right","NoStop",12,14,28,18,17,31,16,277
"16",52,911.5,"Right",1,1,0,300,"Right","NoStop",12,14,28,18,17,31,16,277
"16",53,413.7,"Left",1,1,0,300,"Left","NoStop",12,14,28,18,17,31,16,277
"16",54,380.9,"Left",1,1,0,300,"Left","NoStop",12,14,28,18,17,31,16,277
"16",55,538.2,"Left",1,1,0,300,"Left","NoStop",12,14,28,18,17,31,16,277
"16",56,80.5,"Right",1,0,1,300,"NoGo","Stop",12,14,28,18,17,31,16,277
"16",57,1251.237,"NoGo",NA,1,0,250,"NoGo","Stop",12,14,28,18,17,31,16,277
"16",58,916.4,"Right",1,1,0,300,"Right","NoStop",12,14,28,18,17,31,16,277
"16",59,1201.324,"NoGo",NA,0,1,300,"Right","NoStop",12,14,28,18,17,31,16,277
"16",60,102.9,"Right",1,1,0,300,"Right","NoStop",12,14,28,18,17,31,16,277
"16",61,811.6,"Right",1,1,0,300,"Right","NoStop",12,14,28,18,17,31,16,277
"16",62,504.6999999,"Right",1,1,0,300,"Right","NoStop",12,14,28,18,17,31,16,277
"16",63,216.4,"Right",1,1,0,300,"Right","NoStop",12,14,28,18,17,31,16,277
"16",64,147.9,"Left",1,1,0,300,"Left","NoStop",12,14,28,18,17,31,16,277
"16",65,147.6999999,"Right",1,1,0,300,"Right","NoStop",12,14,28,18,17,31,16,277
"16",66,118.3,"Right",1,1,0,300,"Right","NoStop",12,14,28,18,17,31,16,277
"16",67,73.5,"Right",1,1,0,300,"Right","NoStop",12,14,28,18,17,31,16,277
"16",68,62.39999998,"Right",1,0,1,300,"NoGo","Stop",12,14,28,18,17,31,16,277
"16",69,360.8000001,"Left",1,1,0,250,"Left","NoStop",12,14,28,18,17,31,16,277
"16",70,227.4,"Left",1,1,0,250,"Left","NoStop",12,14,28,18,17,31,16,277
"16",71,527.4,"Left",1,1,0,250,"Left","NoStop",12,14,28,18,17,31,16,277
"16",72,235.9,"Left",1,1,0,250,"Left","NoStop",12,14,28,18,17,31,16,277
"16",73,229.9,"Right",1,0,1,250,"NoGo","Stop",12,14,28,18,17,31,16,277
"16",74,696,"Right",1,1,0,200,"Right","NoStop",12,14,28,18,17,31,16,277
"16",75,196,"Left",1,0,1,200,"NoGo","Stop",12,14,28,18,17,31,16,277
"16",76,1351.394,"NoGo",NA,1,0,150,"NoGo","Stop",12,14,28,18,17,31,16,277
"16",77,1301.401,"NoGo",NA,1,0,200,"NoGo","Stop",12,14,28,18,17,31,16,277
"16",78,1251.289,"NoGo",NA,1,0,250,"NoGo","Stop",12,14,28,18,17,31,16,277
"16",79,246.5,"Left",1,1,0,300,"Left","NoStop",12,14,28,18,17,31,16,277
"16",80,326.5,"Left",1,1,0,300,"Left","NoStop",12,14,28,18,17,31,16,277
"16",81,379.4,"Right",1,1,0,300,"Right","NoStop",12,14,28,18,17,31,16,277
"16",82,416.6999999,"Left",1,1,0,300,"Left","NoStop",12,14,28,18,17,31,16,277
"16",83,313.7,"Right",1,1,0,300,"Right","NoStop",12,14,28,18,17,31,16,277
"16",84,87.30000007,"Left",1,1,0,300,"Left","NoStop",12,14,28,18,17,31,16,277
"16",85,112.9,"Right",1,1,0,300,"Right","NoStop",12,14,28,18,17,31,16,277
"16",86,83,"Left",1,0,1,300,"NoGo","Stop",12,14,28,18,17,31,16,277
"16",87,1251.238,"NoGo",NA,1,0,250,"NoGo","Stop",12,14,28,18,17,31,16,277
"16",88,348.5,"Right",1,1,0,300,"Right","NoStop",12,14,28,18,17,31,16,277
"16",89,498.2,"Right",1,1,0,300,"Right","NoStop",12,14,28,18,17,31,16,277
"16",90,336.6,"Right",1,1,0,300,"Right","NoStop",12,14,28,18,17,31,16,277
"16",91,117,"Right",1,1,0,300,"Right","NoStop",12,14,28,18,17,31,16,277
"16",92,398.4,"Left",1,1,0,300,"Left","NoStop",12,14,28,18,17,31,16,277
"16",93,1201.103,"NoGo",NA,1,0,300,"NoGo","Stop",12,14,28,18,17,31,16,277
"16",94,164.6999999,"Left",1,0,1,350,"NoGo","Stop",12,14,28,18,17,31,16,277
"16",95,727.6999999,"Left",1,1,0,300,"Left","NoStop",12,14,28,18,17,31,16,277
"16",96,501.2,"Left",1,1,0,300,"Left","NoStop",12,14,28,18,17,31,16,277
"16",97,1201.123,"NoGo",NA,1,0,300,"NoGo","Stop",12,14,28,18,17,31,16,277
"16",98,128.6,"Right",1,1,0,350,"Right","NoStop",12,14,28,18,17,31,16,277
"16",99,353.7,"Right",1,1,0,350,"Right","NoStop",12,14,28,18,17,31,16,277
"16",100,132.5,"Right",1,1,0,350,"Right","NoStop",12,14,28,18,17,31,16,277
"16",101,328.5,"Right",1,1,0,350,"Right","NoStop",12,14,28,18,17,31,16,277
"16",102,95.10000002,"Left",1,1,0,350,"Left","NoStop",12,14,28,18,17,31,16,277
"16",103,246.2,"Left",1,0,1,350,"NoGo","Stop",12,14,28,18,17,31,16,277
"16",104,317.5,"Right",1,1,0,300,"Right","NoStop",12,14,28,18,17,31,16,277
"16",105,560.4,"Left",1,1,0,300,"Left","NoStop",12,14,28,18,17,31,16,277
"16",106,501.0999999,"Left",1,1,0,300,"Left","NoStop",12,14,28,18,17,31,16,277
"16",107,626.3000001,"Left",1,1,0,300,"Left","NoStop",12,14,28,18,17,31,16,277
"16",108,432.4,"Right",1,1,0,300,"Right","NoStop",12,14,28,18,17,31,16,277
"16",109,1201.197,"NoGo",NA,1,0,300,"NoGo","Stop",12,14,28,18,17,31,16,277
"16",110,224.3,"Right",1,1,0,350,"Right","NoStop",12,14,28,18,17,31,16,277
"16",111,178.5,"Left",1,1,0,350,"Left","NoStop",12,14,28,18,17,31,16,277
"16",112,331.6999999,"Right",1,1,0,350,"Right","NoStop",12,14,28,18,17,31,16,277
"16",113,210.3000001,"Left",1,0,1,350,"NoGo","Stop",12,14,28,18,17,31,16,277
"16",114,397.1,"Right",1,1,0,300,"Right","NoStop",12,14,28,18,17,31,16,277
"16",115,261,"Left",1,1,0,300,"Left","NoStop",12,14,28,18,17,31,16,277
"16",116,679.8,"Left",1,1,0,300,"Left","NoStop",12,14,28,18,17,31,16,277
"16",117,446.5,"Left",1,1,0,300,"Left","NoStop",12,14,28,18,17,31,16,277
"16",118,259.2,"Right",1,1,0,300,"Right","NoStop",12,14,28,18,17,31,16,277
"16",119,235,"Right",1,1,0,300,"Right","NoStop",12,14,28,18,17,31,16,277
"16",120,265.5,"Left",1,1,0,300,"Left","NoStop",12,14,28,18,17,31,16,277
"16",121,331.3,"Right",1,1,0,300,"Right","NoStop",12,14,28,18,17,31,16,277
"16",122,265.1,"Right",1,1,0,300,"Right","NoStop",12,14,28,18,17,31,16,277
"16",123,1201.105,"NoGo",NA,1,0,300,"NoGo","Stop",12,14,28,18,17,31,16,277
"16",124,123.1,"Left",1,1,0,350,"Left","NoStop",12,14,28,18,17,31,16,277
"16",125,381.1,"Right",1,1,0,350,"Right","NoStop",12,14,28,18,17,31,16,277
"16",126,181.4,"Left",1,1,0,350,"Left","NoStop",12,14,28,18,17,31,16,277
"16",127,80.79999995,"Right",1,1,0,350,"Right","NoStop",12,14,28,18,17,31,16,277
"16",128,290.5,"Left",1,1,0,350,"Left","NoStop",12,14,28,18,17,31,16,277
"16",129,824.2,"Left",1,1,0,350,"Left","NoStop",12,14,28,18,17,31,16,277
"16",130,85.70000005,"Left",1,1,0,350,"Left","NoStop",12,14,28,18,17,31,16,277
"16",131,114.3,"Left",1,0,1,350,"NoGo","Stop",12,14,28,18,17,31,16,277
"16",132,192.9000001,"Right",1,0,1,300,"NoGo","Stop",12,14,28,18,17,31,16,277
"16",133,419.6,"Right",1,1,0,250,"Right","NoStop",12,14,28,18,17,31,16,277
"16",134,315.8,"Left",1,1,0,250,"Left","NoStop",12,14,28,18,17,31,16,277
"16",135,428.5,"Right",1,1,0,250,"Right","NoStop",12,14,28,18,17,31,16,277
"16",136,1251.316,"NoGo",NA,1,0,250,"NoGo","Stop",12,14,28,18,17,31,16,277
"16",137,353.1999999,"Left",1,1,0,300,"Left","NoStop",12,14,28,18,17,31,16,277
"16",138,414.3,"Right",1,1,0,300,"Right","NoStop",12,14,28,18,17,31,16,277
"16",139,1201.204,"NoGo",NA,1,0,300,"NoGo","Stop",12,14,28,18,17,31,16,277
"16",140,266,"Left",1,1,0,350,"Left","NoStop",12,14,28,18,17,31,16,277
"16",141,1151.239,"NoGo",NA,1,0,350,"NoGo","Stop",12,14,28,18,17,31,16,277
"16",142,1100.943,"NoGo",NA,1,0,400,"NoGo","Stop",12,14,28,18,17,31,16,277
"16",143,165.5,"Right",1,1,0,450,"Right","NoStop",12,14,28,18,17,31,16,277
"16",144,422.1999999,"Left",1,1,0,450,"Left","NoStop",12,14,28,18,17,31,16,277
"16",145,352.2,"Left",1,1,0,450,"Left","NoStop",12,14,28,18,17,31,16,277
"16",146,306.6999999,"Left",1,1,0,450,"Left","NoStop",12,14,28,18,17,31,16,277
"16",147,357.2,"Left",1,1,0,450,"Left","NoStop",12,14,28,18,17,31,16,277
"16",148,267.4,"Right",1,1,0,450,"Right","NoStop",12,14,28,18,17,31,16,277
"16",149,164.3000001,"Left",1,1,0,450,"Left","NoStop",12,14,28,18,17,31,16,277
"16",150,27.5,"Left",1,0,1,450,"NoGo","Stop",12,14,28,18,17,31,16,277
"16",151,230.2,"Left",1,1,0,400,"Left","NoStop",12,14,28,18,17,31,16,277
"16",152,189.8,"Left",1,1,0,400,"Left","NoStop",12,14,28,18,17,31,16,277
"16",153,315.6,"Left",1,1,0,400,"Left","NoStop",12,14,28,18,17,31,16,277
"16",154,305.7,"Right",1,1,0,400,"Right","NoStop",12,14,28,18,17,31,16,277
"16",155,247.5,"Left",1,1,0,400,"Left","NoStop",12,14,28,18,17,31,16,277
"16",156,199.9,"Left",1,0,1,400,"NoGo","Stop",12,14,28,18,17,31,16,277
"16",157,495.6,"Left",1,1,0,350,"Left","NoStop",12,14,28,18,17,31,16,277
"16",158,61,"Right",1,1,0,350,"Right","NoStop",12,14,28,18,17,31,16,277
"16",159,188,"Left",1,0,1,350,"NoGo","Stop",12,14,28,18,17,31,16,277
"16",160,212.9,"Left",1,1,0,300,"Left","NoStop",12,14,28,18,17,31,16,277
"16",161,510.3,"Left",1,1,0,300,"Left","NoStop",12,14,28,18,17,31,16,277
"16",162,362.1999999,"Right",1,1,0,300,"Right","NoStop",12,14,28,18,17,31,16,277
"16",163,256.5,"Right",1,1,0,300,"Right","NoStop",12,14,28,18,17,31,16,277
"16",164,384.5,"Left",1,1,0,300,"Left","NoStop",12,14,28,18,17,31,16,277
"16",165,240.1,"Left",1,1,0,300,"Left","NoStop",12,14,28,18,17,31,16,277
"16",166,110.5,"Left",1,1,0,300,"Left","NoStop",12,14,28,18,17,31,16,277
"16",167,128.9,"Left",1,1,0,300,"Left","NoStop",12,14,28,18,17,31,16,277
"16",168,231.6,"Right",1,1,0,300,"Right","NoStop",12,14,28,18,17,31,16,277
"16",169,78.79999995,"Left",1,0,1,300,"Right","NoStop",12,14,28,18,17,31,16,277
"16",170,200.2,"Right",1,1,0,300,"Right","NoStop",12,14,28,18,17,31,16,277
"16",171,178.6,"Right",1,1,0,300,"Right","NoStop",12,14,28,18,17,31,16,277
"16",172,248.3000001,"Right",1,1,0,300,"Right","NoStop",12,14,28,18,17,31,16,277
"16",173,148.6,"Left",1,1,0,300,"Left","NoStop",12,14,28,18,17,31,16,277
"16",174,98.39999998,"Right",1,1,0,300,"Right","NoStop",12,14,28,18,17,31,16,277
"16",175,70.89999998,"Right",1,1,0,300,"Right","NoStop",12,14,28,18,17,31,16,277
"16",176,43.89999998,"Left",1,1,0,300,"Left","NoStop",12,14,28,18,17,31,16,277
"16",177,49.10000002,"Right",1,0,1,300,"NoGo","Stop",12,14,28,18,17,31,16,277
"16",178,553.6,"Left",1,1,0,250,"Left","NoStop",12,14,28,18,17,31,16,277
"16",179,204.5,"Left",1,1,0,250,"Left","NoStop",12,14,28,18,17,31,16,277
"16",180,190.2,"Right",1,1,0,250,"Right","NoStop",12,14,28,18,17,31,16,277
"16",181,614.5999999,"Right",1,1,0,250,"Right","NoStop",12,14,28,18,17,31,16,277
"16",182,1251.31,"NoGo",NA,1,0,250,"NoGo","Stop",12,14,28,18,17,31,16,277
"16",183,489.0999999,"Left",1,1,0,300,"Left","NoStop",12,14,28,18,17,31,16,277
"16",184,360.3000001,"Right",1,1,0,300,"Right","NoStop",12,14,28,18,17,31,16,277
"16",185,305.9,"Left",1,1,0,300,"Left","NoStop",12,14,28,18,17,31,16,277
"16",186,1201.103,"NoGo",NA,1,0,300,"NoGo","Stop",12,14,28,18,17,31,16,277
"16",187,214.7,"Left",1,0,1,350,"NoGo","Stop",12,14,28,18,17,31,16,277
"16",188,182.1999999,"Right",1,1,0,300,"Right","NoStop",12,14,28,18,17,31,16,277
"16",189,1201.276,"NoGo",NA,1,0,300,"NoGo","Stop",12,14,28,18,17,31,16,277
"16",190,217.6999999,"Right",1,1,0,350,"Right","NoStop",12,14,28,18,17,31,16,277
"16",191,1151.12,"NoGo",NA,1,0,350,"NoGo","Stop",12,14,28,18,17,31,16,277
"16",192,306.4,"Right",1,1,0,400,"Right","NoStop",12,14,28,18,17,31,16,277
"16",193,371.9,"Right",1,1,0,400,"Right","NoStop",12,14,28,18,17,31,16,277
"16",194,299.1,"Right",1,0,1,400,"NoGo","Stop",12,14,28,18,17,31,16,277
"16",195,182.4,"Right",1,1,0,350,"Right","NoStop",12,14,28,18,17,31,16,277
"16",196,19.19999993,"Right",1,1,0,350,"Right","NoStop",12,14,28,18,17,31,16,277
"16",197,321.5,"Right",1,0,1,350,"NoGo","Stop",12,14,28,18,17,31,16,277
"16",198,68.10000002,"Right",1,1,0,300,"Right","NoStop",12,14,28,18,17,31,16,277
"16",199,36.80000007,"Right",1,1,0,300,"Right","NoStop",12,14,28,18,17,31,16,277
"16",200,17.39999998,"Right",1,1,0,300,"Right","NoStop",12,14,28,18,17,31,16,277
"16",201,212.9,"Left",1,1,0,300,"Left","NoStop",12,14,28,18,17,31,16,277
"16",202,77.39999998,"Right",1,1,0,300,"Right","NoStop",12,14,28,18,17,31,16,277
"16",203,152.1,"Left",1,1,0,300,"Left","NoStop",12,14,28,18,17,31,16,277
"16",204,174.2,"Left",1,1,0,300,"Left","NoStop",12,14,28,18,17,31,16,277
"16",205,21.80000007,"Right",1,1,0,300,"Right","NoStop",12,14,28,18,17,31,16,277
"16",206,229.8,"Left",1,1,0,300,"Left","NoStop",12,14,28,18,17,31,16,277
"16",207,228.6,"Left",1,1,0,300,"Left","NoStop",12,14,28,18,17,31,16,277
"16",208,132.2,"Left",1,1,0,300,"Left","NoStop",12,14,28,18,17,31,16,277
"16",209,168.1,"Left",1,1,0,300,"Left","NoStop",12,14,28,18,17,31,16,277
"16",210,99.70000005,"Left",1,1,0,300,"Left","NoStop",12,14,28,18,17,31,16,277
"16",211,109.4,"Right",1,1,0,300,"Right","NoStop",12,14,28,18,17,31,16,277
"16",212,125.9,"Right",1,1,0,300,"Right","NoStop",12,14,28,18,17,31,16,277
"16",213,2.899999976,"Left",1,1,0,300,"Left","NoStop",12,14,28,18,17,31,16,277
"16",214,134.1,"Left",1,1,0,300,"Left","NoStop",12,14,28,18,17,31,16,277
"16",215,61.5999999,"Left",1,1,0,300,"Left","NoStop",12,14,28,18,17,31,16,277
"16",216,155.3,"Right",1,1,0,300,"Right","NoStop",12,14,28,18,17,31,16,277
"16",217,101,"Right",1,0,1,300,"NoGo","Stop",12,14,28,18,17,31,16,277
"16",218,182.9,"Left",1,0,1,250,"NoGo","Stop",12,14,28,18,17,31,16,277
"16",219,459.3,"Right",1,1,0,200,"Right","NoStop",12,14,28,18,17,31,16,277
"16",220,180.9,"Right",1,1,0,200,"Right","NoStop",12,14,28,18,17,31,16,277
"16",221,252.4,"Right",1,1,0,200,"Right","NoStop",12,14,28,18,17,31,16,277
"16",222,218.8000001,"Left",1,1,0,200,"Left","NoStop",12,14,28,18,17,31,16,277
"16",223,180.4,"Left",1,1,0,200,"Left","NoStop",12,14,28,18,17,31,16,277
"16",224,151.5,"Left",1,0,1,200,"NoGo","Stop",12,14,28,18,17,31,16,277
"16",225,1351.241,"NoGo",NA,1,0,150,"NoGo","Stop",12,14,28,18,17,31,16,277
"16",226,178.9,"Right",1,1,0,200,"Right","NoStop",12,14,28,18,17,31,16,277
"16",227,375.1,"Right",1,0,1,200,"NoGo","Stop",12,14,28,18,17,31,16,277
"16",228,1351.35,"NoGo",NA,1,0,150,"NoGo","Stop",12,14,28,18,17,31,16,277
"16",229,378.5,"Left",1,1,0,200,"Left","NoStop",12,14,28,18,17,31,16,277
"16",230,429.5,"Left",1,1,0,200,"Left","NoStop",12,14,28,18,17,31,16,277
"16",231,341.0999999,"Right",1,1,0,200,"Right","NoStop",12,14,28,18,17,31,16,277
"16",232,435.6,"Left",1,1,0,200,"Left","NoStop",12,14,28,18,17,31,16,277
"16",233,361.9,"Left",1,1,0,200,"Left","NoStop",12,14,28,18,17,31,16,277
"16",234,295.9,"Left",1,1,0,200,"Left","NoStop",12,14,28,18,17,31,16,277
"16",235,252.6,"Left",1,1,0,200,"Left","NoStop",12,14,28,18,17,31,16,277
"16",236,243.5,"Right",1,1,0,200,"Right","NoStop",12,14,28,18,17,31,16,277
"16",237,1301.288,"NoGo",NA,1,0,200,"NoGo","Stop",12,14,28,18,17,31,16,277
"16",238,345.8,"Right",1,1,0,250,"Right","NoStop",12,14,28,18,17,31,16,277
"16",239,1251.244,"NoGo",NA,1,0,250,"NoGo","Stop",12,14,28,18,17,31,16,277
"16",240,1201.2,"NoGo",NA,1,0,300,"NoGo","Stop",12,14,28,18,17,31,16,277
"5",1,70.79999995,"Right",1,1,0,250,"Right","NoStop",5,8,13,12,2,33,6,890
"5",2,32.60000002,"Left",1,1,0,250,"Left","NoStop",5,8,13,12,2,33,6,890
"5",3,41.20000005,"Left",1,1,0,250,"Left","NoStop",5,8,13,12,2,33,6,890
"5",4,173.1999999,"Left",1,1,0,250,"Left","NoStop",5,8,13,12,2,33,6,890
"5",5,134.1,"Right",1,0,1,250,"NoGo","Stop",5,8,13,12,2,33,6,890
"5",6,92.20000005,"Left",1,1,0,200,"Left","NoStop",5,8,13,12,2,33,6,890
"5",7,113.3,"Right",1,1,0,200,"Right","NoStop",5,8,13,12,2,33,6,890
"5",8,152.4000001,"Left",1,0,1,200,"NoGo","Stop",5,8,13,12,2,33,6,890
"5",9,679.3000001,"Left",1,1,0,150,"Left","NoStop",5,8,13,12,2,33,6,890
"5",10,270,"Left",1,1,0,150,"Left","NoStop",5,8,13,12,2,33,6,890
"5",11,241.4,"Right",1,1,0,150,"Right","NoStop",5,8,13,12,2,33,6,890
"5",12,233.8000001,"Right",1,1,0,150,"Right","NoStop",5,8,13,12,2,33,6,890
"5",13,202.6999999,"Right",1,1,0,150,"Right","NoStop",5,8,13,12,2,33,6,890
"5",14,213.9000001,"Left",1,1,0,150,"Left","NoStop",5,8,13,12,2,33,6,890
"5",15,217.1,"Left",1,1,0,150,"Left","NoStop",5,8,13,12,2,33,6,890
"5",16,984.6999999,"Right",1,0,1,150,"NoGo","Stop",5,8,13,12,2,33,6,890
"5",17,173.4000001,"Left",1,0,1,100,"Right","NoStop",5,8,13,12,2,33,6,890
"5",18,264.3000001,"Right",1,1,0,100,"Right","NoStop",5,8,13,12,2,33,6,890
"5",19,350.8,"Left",1,1,0,100,"Left","NoStop",5,8,13,12,2,33,6,890
"5",20,188.6999999,"Right",1,1,0,100,"Right","NoStop",5,8,13,12,2,33,6,890
"5",21,142,"Left",1,0,1,100,"Right","NoStop",5,8,13,12,2,33,6,890
"5",22,244.2,"Right",1,1,0,100,"Right","NoStop",5,8,13,12,2,33,6,890
"5",23,795,"Left",1,0,1,100,"NoGo","Stop",5,8,13,12,2,33,6,890
"5",24,792.3000001,"Left",1,0,1,50,"NoGo","Stop",5,8,13,12,2,33,6,890
"5",25,526.8,"Right",1,1,0,50,"Right","NoStop",5,8,13,12,2,33,6,890
"5",26,250.3,"Right",1,1,0,50,"Right","NoStop",5,8,13,12,2,33,6,890
"5",27,549.8000001,"Left",1,1,0,50,"Left","NoStop",5,8,13,12,2,33,6,890
"5",28,298.1999999,"Left",1,1,0,50,"Left","NoStop",5,8,13,12,2,33,6,890
"5",29,318,"Right",1,1,0,50,"Right","NoStop",5,8,13,12,2,33,6,890
"5",30,775.4,"Right",1,0,1,50,"NoGo","Stop",5,8,13,12,2,33,6,890
"5",31,220.5,"Right",1,1,0,50,"Right","NoStop",5,8,13,12,2,33,6,890
"5",32,735.2,"Right",1,0,1,50,"NoGo","Stop",5,8,13,12,2,33,6,890
"5",33,311,"Right",1,1,0,50,"Right","NoStop",5,8,13,12,2,33,6,890
"5",34,590.6,"Left",1,1,0,50,"Left","NoStop",5,8,13,12,2,33,6,890
"5",35,254,"Right",1,1,0,50,"Right","NoStop",5,8,13,12,2,33,6,890
"5",36,766,"Right",1,0,1,50,"NoGo","Stop",5,8,13,12,2,33,6,890
"5",37,283.9,"Left",1,1,0,50,"Left","NoStop",5,8,13,12,2,33,6,890
"5",38,772.7,"Right",1,0,1,50,"NoGo","Stop",5,8,13,12,2,33,6,890
"5",39,652.5,"Left",1,0,1,50,"NoGo","Stop",5,8,13,12,2,33,6,890
"5",40,376.8,"Left",1,1,0,50,"Left","NoStop",5,8,13,12,2,33,6,890
"5",41,322.8,"Left",1,1,0,50,"Left","NoStop",5,8,13,12,2,33,6,890
"5",42,346,"Left",1,1,0,50,"Left","NoStop",5,8,13,12,2,33,6,890
"5",43,400.7,"Right",1,1,0,50,"Right","NoStop",5,8,13,12,2,33,6,890
"5",44,280.3000001,"Left",1,1,0,50,"Left","NoStop",5,8,13,12,2,33,6,890
"5",45,369.5,"Left",1,1,0,50,"Left","NoStop",5,8,13,12,2,33,6,890
"5",46,332.9,"Left",1,1,0,50,"Left","NoStop",5,8,13,12,2,33,6,890
"5",47,229.1999999,"Left",1,0,1,50,"NoGo","Stop",5,8,13,12,2,33,6,890
"5",48,288.2,"Right",1,1,0,50,"Right","NoStop",5,8,13,12,2,33,6,890
"5",49,377,"Right",1,1,0,50,"Right","NoStop",5,8,13,12,2,33,6,890
"5",50,305.5,"Right",1,1,0,50,"Right","NoStop",5,8,13,12,2,33,6,890
"5",51,348,"Left",1,1,0,50,"Left","NoStop",5,8,13,12,2,33,6,890
"5",52,343.2,"Left",1,1,0,50,"Left","NoStop",5,8,13,12,2,33,6,890
"5",53,309.3000001,"Right",1,1,0,50,"Right","NoStop",5,8,13,12,2,33,6,890
"5",54,259.1,"Left",1,1,0,50,"Left","NoStop",5,8,13,12,2,33,6,890
"5",55,279.7,"Right",1,1,0,50,"Right","NoStop",5,8,13,12,2,33,6,890
"5",56,344.1,"Left",1,0,1,50,"Right","NoStop",5,8,13,12,2,33,6,890
"5",57,392.8,"Left",1,1,0,50,"Left","NoStop",5,8,13,12,2,33,6,890
"5",58,814.9000001,"Left",1,0,1,50,"NoGo","Stop",5,8,13,12,2,33,6,890
"5",59,352.6,"Right",1,1,0,50,"Right","NoStop",5,8,13,12,2,33,6,890
"5",60,311.5999999,"Left",1,1,0,50,"Left","NoStop",5,8,13,12,2,33,6,890
"5",61,582.4,"Left",1,1,0,50,"Left","NoStop",5,8,13,12,2,33,6,890
"5",62,317.6,"Left",1,1,0,50,"Left","NoStop",5,8,13,12,2,33,6,890
"5",63,284.1,"Right",1,1,0,50,"Right","NoStop",5,8,13,12,2,33,6,890
"5",64,316.6,"Right",1,1,0,50,"Right","NoStop",5,8,13,12,2,33,6,890
"5",65,333,"Left",1,1,0,50,"Left","NoStop",5,8,13,12,2,33,6,890
"5",66,814.4,"Left",1,0,1,50,"NoGo","Stop",5,8,13,12,2,33,6,890
"5",67,286.5999999,"Right",1,1,0,50,"Right","NoStop",5,8,13,12,2,33,6,890
"5",68,338.4000001,"Left",1,1,0,50,"Left","NoStop",5,8,13,12,2,33,6,890
"5",69,760.6,"Left",1,0,1,50,"NoGo","Stop",5,8,13,12,2,33,6,890
"5",70,342.3000001,"Right",1,1,0,50,"Right","NoStop",5,8,13,12,2,33,6,890
"5",71,744.9000001,"Right",1,0,1,50,"NoGo","Stop",5,8,13,12,2,33,6,890
"5",72,320.5,"Left",1,1,0,50,"Left","NoStop",5,8,13,12,2,33,6,890
"5",73,805.0999999,"Left",1,0,1,50,"NoGo","Stop",5,8,13,12,2,33,6,890
"5",74,803,"Left",1,0,1,50,"NoGo","Stop",5,8,13,12,2,33,6,890
"5",75,479.8,"Right",1,1,0,50,"Right","NoStop",5,8,13,12,2,33,6,890
"5",76,838.6,"Left",1,0,1,50,"NoGo","Stop",5,8,13,12,2,33,6,890
"5",77,338,"Left",1,1,0,50,"Left","NoStop",5,8,13,12,2,33,6,890
"5",78,350,"Right",1,1,0,50,"Right","NoStop",5,8,13,12,2,33,6,890
"5",79,310.8000001,"Left",1,1,0,50,"Left","NoStop",5,8,13,12,2,33,6,890
"5",80,285.9,"Left",1,1,0,50,"Left","NoStop",5,8,13,12,2,33,6,890
"5",81,352.2,"Right",1,1,0,50,"Right","NoStop",5,8,13,12,2,33,6,890
"5",82,466.9,"Right",1,1,0,50,"Right","NoStop",5,8,13,12,2,33,6,890
"5",83,390.3,"Left",1,1,0,50,"Left","NoStop",5,8,13,12,2,33,6,890
"5",84,780.1999999,"Right",1,0,1,50,"NoGo","Stop",5,8,13,12,2,33,6,890
"5",85,959.5999999,"Left",1,0,1,50,"NoGo","Stop",5,8,13,12,2,33,6,890
"5",86,386.6999999,"Right",1,1,0,50,"Right","NoStop",5,8,13,12,2,33,6,890
"5",87,771.8,"Left",1,0,1,50,"NoGo","Stop",5,8,13,12,2,33,6,890
"5",88,433.1999999,"Left",1,1,0,50,"Left","NoStop",5,8,13,12,2,33,6,890
"5",89,264.4,"Right",1,1,0,50,"Right","NoStop",5,8,13,12,2,33,6,890
"5",90,348.8,"Right",1,1,0,50,"Right","NoStop",5,8,13,12,2,33,6,890
"5",91,404.3,"Left",1,1,0,50,"Left","NoStop",5,8,13,12,2,33,6,890
"5",92,305.9,"Left",1,1,0,50,"Left","NoStop",5,8,13,12,2,33,6,890
"5",93,314.2,"Left",1,1,0,50,"Left","NoStop",5,8,13,12,2,33,6,890
"5",94,819.8000001,"Right",1,0,1,50,"NoGo","Stop",5,8,13,12,2,33,6,890
"5",95,341.2,"Left",1,1,0,50,"Left","NoStop",5,8,13,12,2,33,6,890
"5",96,408.5,"Left",1,1,0,50,"Left","NoStop",5,8,13,12,2,33,6,890
"5",97,313.7,"Right",1,1,0,50,"Right","NoStop",5,8,13,12,2,33,6,890
"5",98,783.5,"Left",1,0,1,50,"NoGo","Stop",5,8,13,12,2,33,6,890
"5",99,769.9,"Right",1,0,1,50,"NoGo","Stop",5,8,13,12,2,33,6,890
"5",100,789,"Right",1,0,1,50,"NoGo","Stop",5,8,13,12,2,33,6,890
"5",101,254.7,"Right",1,1,0,50,"Right","NoStop",5,8,13,12,2,33,6,890
"5",102,443.3000001,"Left",1,1,0,50,"Left","NoStop",5,8,13,12,2,33,6,890
"5",103,804.8,"Left",1,0,1,50,"NoGo","Stop",5,8,13,12,2,33,6,890
"5",104,344.4,"Left",1,1,0,50,"Left","NoStop",5,8,13,12,2,33,6,890
"5",105,340.5,"Right",1,1,0,50,"Right","NoStop",5,8,13,12,2,33,6,890
"5",106,785.9000001,"Right",1,0,1,50,"NoGo","Stop",5,8,13,12,2,33,6,890
"5",107,734,"Right",1,0,1,50,"NoGo","Stop",5,8,13,12,2,33,6,890
"5",108,329.9,"Right",1,1,0,50,"Right","NoStop",5,8,13,12,2,33,6,890
"5",109,427.1999999,"Left",1,1,0,50,"Left","NoStop",5,8,13,12,2,33,6,890
"5",110,759.4000001,"Right",1,0,1,50,"NoGo","Stop",5,8,13,12,2,33,6,890
"5",111,348.2,"Right",1,1,0,50,"Right","NoStop",5,8,13,12,2,33,6,890
"5",112,331.5,"Left",1,1,0,50,"Left","NoStop",5,8,13,12,2,33,6,890
"5",113,788.8000001,"Left",1,0,1,50,"NoGo","Stop",5,8,13,12,2,33,6,890
"5",114,687.7,"Right",1,1,0,50,"Right","NoStop",5,8,13,12,2,33,6,890
"5",115,439.4,"Right",1,1,0,50,"Right","NoStop",5,8,13,12,2,33,6,890
"5",116,340.8000001,"Right",1,0,1,50,"Left","NoStop",5,8,13,12,2,33,6,890
"5",117,345.1999999,"Right",1,1,0,50,"Right","NoStop",5,8,13,12,2,33,6,890
"5",118,345.8,"Left",1,1,0,50,"Left","NoStop",5,8,13,12,2,33,6,890
"5",119,401.5,"Right",1,1,0,50,"Right","NoStop",5,8,13,12,2,33,6,890
"5",120,371.6999999,"Right",1,1,0,50,"Right","NoStop",5,8,13,12,2,33,6,890
"5",121,553.5,"Right",1,1,0,50,"Right","NoStop",5,8,13,12,2,33,6,890
"5",122,342.6,"Right",1,0,1,50,"NoGo","Stop",5,8,13,12,2,33,6,890
"5",123,749.2,"Right",1,0,1,50,"NoGo","Stop",5,8,13,12,2,33,6,890
"5",124,374.1,"Left",1,1,0,50,"Left","NoStop",5,8,13,12,2,33,6,890
"5",125,307.1,"Right",1,1,0,50,"Right","NoStop",5,8,13,12,2,33,6,890
"5",126,731.4,"Right",1,0,1,50,"NoGo","Stop",5,8,13,12,2,33,6,890
"5",127,289.4,"Right",1,1,0,50,"Right","NoStop",5,8,13,12,2,33,6,890
"5",128,284.8000001,"Right",1,1,0,50,"Right","NoStop",5,8,13,12,2,33,6,890
"5",129,370.5,"Left",1,1,0,50,"Left","NoStop",5,8,13,12,2,33,6,890
"5",130,746.4000001,"Right",1,0,1,50,"NoGo","Stop",5,8,13,12,2,33,6,890
"5",131,336.6,"Left",1,1,0,50,"Left","NoStop",5,8,13,12,2,33,6,890
"5",132,418.2,"Left",1,1,0,50,"Left","NoStop",5,8,13,12,2,33,6,890
"5",133,349.3,"Left",1,1,0,50,"Left","NoStop",5,8,13,12,2,33,6,890
"5",134,316,"Left",1,1,0,50,"Left","NoStop",5,8,13,12,2,33,6,890
"5",135,346.6,"Right",1,1,0,50,"Right","NoStop",5,8,13,12,2,33,6,890
"5",136,479.2,"Left",1,0,1,50,"Right","NoStop",5,8,13,12,2,33,6,890
"5",137,898.1999999,"Right",1,1,0,50,"Right","NoStop",5,8,13,12,2,33,6,890
"5",138,292.1,"Right",1,1,0,50,"Right","NoStop",5,8,13,12,2,33,6,890
"5",139,780.1,"Right",1,0,1,50,"NoGo","Stop",5,8,13,12,2,33,6,890
"5",140,276.3000001,"Right",1,1,0,50,"Right","NoStop",5,8,13,12,2,33,6,890
"5",141,311,"Right",1,1,0,50,"Right","NoStop",5,8,13,12,2,33,6,890
"5",142,226.8000001,"Right",1,0,1,50,"Left","NoStop",5,8,13,12,2,33,6,890
"5",143,316.2,"Right",1,1,0,50,"Right","NoStop",5,8,13,12,2,33,6,890
"5",144,309.4000001,"Left",1,1,0,50,"Left","NoStop",5,8,13,12,2,33,6,890
"5",145,716.7,"Right",1,0,1,50,"NoGo","Stop",5,8,13,12,2,33,6,890
"5",146,776.5999999,"Left",1,0,1,50,"NoGo","Stop",5,8,13,12,2,33,6,890
"5",147,337,"Right",1,1,0,50,"Right","NoStop",5,8,13,12,2,33,6,890
"5",148,802.4,"Left",1,0,1,50,"NoGo","Stop",5,8,13,12,2,33,6,890
"5",149,398.8,"Left",1,1,0,50,"Left","NoStop",5,8,13,12,2,33,6,890
"5",150,760.5,"Left",1,0,1,50,"NoGo","Stop",5,8,13,12,2,33,6,890
"5",151,400.3,"Left",1,1,0,50,"Left","NoStop",5,8,13,12,2,33,6,890
"5",152,407.1,"Right",1,1,0,50,"Right","NoStop",5,8,13,12,2,33,6,890
"5",153,399.4,"Left",1,1,0,50,"Left","NoStop",5,8,13,12,2,33,6,890
"5",154,254,"Right",1,1,0,50,"Right","NoStop",5,8,13,12,2,33,6,890
"5",155,368.5,"Left",1,1,0,50,"Left","NoStop",5,8,13,12,2,33,6,890
"5",156,353.1,"Right",1,1,0,50,"Right","NoStop",5,8,13,12,2,33,6,890
"5",157,747,"Right",1,0,1,50,"NoGo","Stop",5,8,13,12,2,33,6,890
"5",158,369.5,"Left",1,1,0,50,"Left","NoStop",5,8,13,12,2,33,6,890
"5",159,321.8000001,"Left",1,1,0,50,"Left","NoStop",5,8,13,12,2,33,6,890
"5",160,299.8,"Left",1,1,0,50,"Left","NoStop",5,8,13,12,2,33,6,890
"5",161,773,"Left",1,0,1,50,"NoGo","Stop",5,8,13,12,2,33,6,890
"5",162,266.7,"Left",1,1,0,50,"Left","NoStop",5,8,13,12,2,33,6,890
"5",163,269.4000001,"Left",1,1,0,50,"Left","NoStop",5,8,13,12,2,33,6,890
"5",164,316.1,"Left",1,1,0,50,"Left","NoStop",5,8,13,12,2,33,6,890
"5",165,314.5,"Left",1,1,0,50,"Left","NoStop",5,8,13,12,2,33,6,890
"5",166,522.4000001,"Right",1,1,0,50,"Right","NoStop",5,8,13,12,2,33,6,890
"5",167,744.0999999,"Left",1,0,1,50,"NoGo","Stop",5,8,13,12,2,33,6,890
"5",168,727.8,"Left",1,0,1,50,"NoGo","Stop",5,8,13,12,2,33,6,890
"5",169,630.1,"Right",1,0,1,50,"NoGo","Stop",5,8,13,12,2,33,6,890
"5",170,301.6,"Left",1,1,0,50,"Left","NoStop",5,8,13,12,2,33,6,890
"5",171,461.6,"Right",1,1,0,50,"Right","NoStop",5,8,13,12,2,33,6,890
"5",172,302.1,"Left",1,1,0,50,"Left","NoStop",5,8,13,12,2,33,6,890
"5",173,468.5,"Left",1,1,0,50,"Left","NoStop",5,8,13,12,2,33,6,890
"5",174,526.3000001,"Right",1,1,0,50,"Right","NoStop",5,8,13,12,2,33,6,890
"5",175,526.5,"Right",1,1,0,50,"Right","NoStop",5,8,13,12,2,33,6,890
"5",176,455.4,"Left",1,1,0,50,"Left","NoStop",5,8,13,12,2,33,6,890
"5",177,318.1,"Left",1,1,0,50,"Left","NoStop",5,8,13,12,2,33,6,890
"5",178,415.3,"Left",1,0,1,50,"Right","NoStop",5,8,13,12,2,33,6,890
"5",179,743.5999999,"Right",1,0,1,50,"NoGo","Stop",5,8,13,12,2,33,6,890
"5",180,375.1,"Right",1,1,0,50,"Right","NoStop",5,8,13,12,2,33,6,890
"5",181,401.5,"Right",1,1,0,50,"Right","NoStop",5,8,13,12,2,33,6,890
"5",182,331.2,"Left",1,0,1,50,"NoGo","Stop",5,8,13,12,2,33,6,890
"5",183,339.4,"Left",1,1,0,50,"Left","NoStop",5,8,13,12,2,33,6,890
"5",184,300.9,"Left",1,1,0,50,"Left","NoStop",5,8,13,12,2,33,6,890
"5",185,318.3000001,"Right",1,1,0,50,"Right","NoStop",5,8,13,12,2,33,6,890
"5",186,355.3,"Right",1,1,0,50,"Right","NoStop",5,8,13,12,2,33,6,890
"5",187,293.5999999,"Left",1,1,0,50,"Left","NoStop",5,8,13,12,2,33,6,890
"5",188,312.3,"Left",1,1,0,50,"Left","NoStop",5,8,13,12,2,33,6,890
"5",189,310.3,"Left",1,1,0,50,"Left","NoStop",5,8,13,12,2,33,6,890
"5",190,315.8,"Right",1,1,0,50,"Right","NoStop",5,8,13,12,2,33,6,890
"5",191,757.6999999,"Right",1,0,1,50,"NoGo","Stop",5,8,13,12,2,33,6,890
"5",192,708.4,"Right",1,0,1,50,"NoGo","Stop",5,8,13,12,2,33,6,890
"5",193,363.1,"Left",1,1,0,50,"Left","NoStop",5,8,13,12,2,33,6,890
"5",194,763.3,"Left",1,0,1,50,"NoGo","Stop",5,8,13,12,2,33,6,890
"5",195,438.8,"Left",1,1,0,50,"Left","NoStop",5,8,13,12,2,33,6,890
"5",196,321.4,"Right",1,1,0,50,"Right","NoStop",5,8,13,12,2,33,6,890
"5",197,775.2,"Left",1,0,1,50,"NoGo","Stop",5,8,13,12,2,33,6,890
"5",198,366.7,"Left",1,1,0,50,"Left","NoStop",5,8,13,12,2,33,6,890
"5",199,339.9,"Right",1,1,0,50,"Right","NoStop",5,8,13,12,2,33,6,890
"5",200,289.6,"Left",1,1,0,50,"Left","NoStop",5,8,13,12,2,33,6,890
"5",201,296.1,"Left",1,1,0,50,"Left","NoStop",5,8,13,12,2,33,6,890
"5",202,228.5,"Left",1,1,0,50,"Left","NoStop",5,8,13,12,2,33,6,890
"5",203,400.8,"Right",1,1,0,50,"Right","NoStop",5,8,13,12,2,33,6,890
"5",204,685.8,"Right",1,0,1,50,"NoGo","Stop",5,8,13,12,2,33,6,890
"5",205,684.1,"Left",1,0,1,50,"NoGo","Stop",5,8,13,12,2,33,6,890
"5",206,743.3,"Left",1,0,1,50,"NoGo","Stop",5,8,13,12,2,33,6,890
"5",207,341.8000001,"Left",1,1,0,50,"Left","NoStop",5,8,13,12,2,33,6,890
"5",208,755.5,"Right",1,0,1,50,"NoGo","Stop",5,8,13,12,2,33,6,890
"5",209,347.3000001,"Right",1,1,0,50,"Right","NoStop",5,8,13,12,2,33,6,890
"5",210,394.6999999,"Left",1,1,0,50,"Left","NoStop",5,8,13,12,2,33,6,890
"5",211,704.2,"Right",1,0,1,50,"NoGo","Stop",5,8,13,12,2,33,6,890
"5",212,342.8,"Right",1,1,0,50,"Right","NoStop",5,8,13,12,2,33,6,890
"5",213,312.1,"Right",1,1,0,50,"Right","NoStop",5,8,13,12,2,33,6,890
"5",214,325.9000001,"Right",1,1,0,50,"Right","NoStop",5,8,13,12,2,33,6,890
"5",215,451.6,"Left",1,1,0,50,"Left","NoStop",5,8,13,12,2,33,6,890
"5",216,375.1,"Left",1,1,0,50,"Left","NoStop",5,8,13,12,2,33,6,890
"5",217,357.9,"Right",1,1,0,50,"Right","NoStop",5,8,13,12,2,33,6,890
"5",218,378.8,"Left",1,1,0,50,"Left","NoStop",5,8,13,12,2,33,6,890
"5",219,328.4000001,"Right",1,1,0,50,"Right","NoStop",5,8,13,12,2,33,6,890
"5",220,380.4,"Right",1,1,0,50,"Right","NoStop",5,8,13,12,2,33,6,890
"5",221,745.8,"Right",1,0,1,50,"NoGo","Stop",5,8,13,12,2,33,6,890
"5",222,317.3,"Right",1,1,0,50,"Right","NoStop",5,8,13,12,2,33,6,890
"5",223,741.9,"Right",1,0,1,50,"NoGo","Stop",5,8,13,12,2,33,6,890
"5",224,316.8,"Right",1,1,0,50,"Right","NoStop",5,8,13,12,2,33,6,890
"5",225,234.9000001,"Right",1,1,0,50,"Right","NoStop",5,8,13,12,2,33,6,890
"5",226,406.3,"Left",1,1,0,50,"Left","NoStop",5,8,13,12,2,33,6,890
"5",227,313.1999999,"Right",1,1,0,50,"Right","NoStop",5,8,13,12,2,33,6,890
"5",228,637.0999999,"Left",1,0,1,50,"NoGo","Stop",5,8,13,12,2,33,6,890
"5",229,677.6999999,"Left",1,0,1,50,"NoGo","Stop",5,8,13,12,2,33,6,890
"5",230,318.8000001,"Right",1,1,0,50,"Right","NoStop",5,8,13,12,2,33,6,890
"5",231,391.8,"Left",1,1,0,50,"Left","NoStop",5,8,13,12,2,33,6,890
"5",232,387.5,"Left",1,1,0,50,"Left","NoStop",5,8,13,12,2,33,6,890
"5",233,258.4000001,"Right",1,1,0,50,"Right","NoStop",5,8,13,12,2,33,6,890
"5",234,691.3,"Left",1,0,1,50,"NoGo","Stop",5,8,13,12,2,33,6,890
"5",235,420,"Left",1,1,0,50,"Left","NoStop",5,8,13,12,2,33,6,890
"5",236,369.4,"Right",1,1,0,50,"Right","NoStop",5,8,13,12,2,33,6,890
"5",237,458.1,"Right",1,1,0,50,"Right","NoStop",5,8,13,12,2,33,6,890
"5",238,328.5,"Right",1,1,0,50,"Right","NoStop",5,8,13,12,2,33,6,890
"5",239,348.6,"Left",1,1,0,50,"Left","NoStop",5,8,13,12,2,33,6,890
"5",240,367.9,"Right",1,1,0,50,"Right","NoStop",5,8,13,12,2,33,6,890
"9",1,109,"Right",1,1,0,250,"Right","NoStop",7,6,20,6,8,17,8,265
"9",2,132.7,"Right",1,1,0,250,"Right","NoStop",7,6,20,6,8,17,8,265
"9",3,147.2,"Right",1,1,0,250,"Right","NoStop",7,6,20,6,8,17,8,265
"9",4,215.9,"Left",1,0,1,250,"NoGo","Stop",7,6,20,6,8,17,8,265
"9",5,196.7,"Left",1,1,0,200,"Left","NoStop",7,6,20,6,8,17,8,265
"9",6,302.9,"Right",1,1,0,200,"Right","NoStop",7,6,20,6,8,17,8,265
"9",7,221.5,"Right",1,0,1,200,"NoGo","Stop",7,6,20,6,8,17,8,265
"9",8,317.2,"Left",1,1,0,150,"Left","NoStop",7,6,20,6,8,17,8,265
"9",9,499.8,"Left",1,1,0,150,"Left","NoStop",7,6,20,6,8,17,8,265
"9",10,1349.712,"NoGo",NA,1,0,150,"NoGo","Stop",7,6,20,6,8,17,8,265
"9",11,229.4,"Right",1,0,1,200,"NoGo","Stop",7,6,20,6,8,17,8,265
"9",12,244.4,"Left",1,1,0,150,"Left","NoStop",7,6,20,6,8,17,8,265
"9",13,387.9,"Right",1,1,0,150,"Right","NoStop",7,6,20,6,8,17,8,265
"9",14,218.1,"Right",1,1,0,150,"Right","NoStop",7,6,20,6,8,17,8,265
"9",15,202.4,"Right",1,1,0,150,"Right","NoStop",7,6,20,6,8,17,8,265
"9",16,232.6,"Right",1,1,0,150,"Right","NoStop",7,6,20,6,8,17,8,265
"9",17,212.2,"Right",1,0,1,150,"NoGo","Stop",7,6,20,6,8,17,8,265
"9",18,496.2,"Right",1,1,0,100,"Right","NoStop",7,6,20,6,8,17,8,265
"9",19,299.2,"Left",1,1,0,100,"Left","NoStop",7,6,20,6,8,17,8,265
"9",20,324.6,"Left",1,1,0,100,"Left","NoStop",7,6,20,6,8,17,8,265
"9",21,390.5,"Right",1,1,0,100,"Right","NoStop",7,6,20,6,8,17,8,265
"9",22,313.9,"Left",1,1,0,100,"Left","NoStop",7,6,20,6,8,17,8,265
"9",23,270,"Right",1,1,0,100,"Right","NoStop",7,6,20,6,8,17,8,265
"9",24,1399.814,"NoGo",NA,1,0,100,"NoGo","Stop",7,6,20,6,8,17,8,265
"9",25,210.2,"Right",1,0,1,150,"NoGo","Stop",7,6,20,6,8,17,8,265
"9",26,553.9,"Right",1,1,0,100,"Right","NoStop",7,6,20,6,8,17,8,265
"9",27,315.6,"Left",1,1,0,100,"Left","NoStop",7,6,20,6,8,17,8,265
"9",28,314.4,"Left",1,1,0,100,"Left","NoStop",7,6,20,6,8,17,8,265
"9",29,581.7,"Left",1,1,0,100,"Left","NoStop",7,6,20,6,8,17,8,265
"9",30,309.7,"Left",1,1,0,100,"Left","NoStop",7,6,20,6,8,17,8,265
"9",31,393.1,"Left",1,1,0,100,"Left","NoStop",7,6,20,6,8,17,8,265
"9",32,345.4,"Right",1,1,0,100,"Right","NoStop",7,6,20,6,8,17,8,265
"9",33,319.5,"Left",1,1,0,100,"Left","NoStop",7,6,20,6,8,17,8,265
"9",34,297.2,"Right",1,1,0,100,"Right","NoStop",7,6,20,6,8,17,8,265
"9",35,1399.739,"NoGo",NA,1,0,100,"NoGo","Stop",7,6,20,6,8,17,8,265
"9",36,244.8,"Left",1,1,0,150,"Left","NoStop",7,6,20,6,8,17,8,265
"9",37,228.5,"Left",1,0,1,150,"NoGo","Stop",7,6,20,6,8,17,8,265
"9",38,315.3,"Right",1,1,0,100,"Right","NoStop",7,6,20,6,8,17,8,265
"9",39,276.2,"Left",1,1,0,100,"Left","NoStop",7,6,20,6,8,17,8,265
"9",40,262.8,"Right",1,1,0,100,"Right","NoStop",7,6,20,6,8,17,8,265
"9",41,1399.509,"NoGo",NA,1,0,100,"NoGo","Stop",7,6,20,6,8,17,8,265
"9",42,308.7,"Right",1,1,0,150,"Right","NoStop",7,6,20,6,8,17,8,265
"9",43,182.3,"Left",1,1,0,150,"Left","NoStop",7,6,20,6,8,17,8,265
"9",44,242.4,"Right",1,1,0,150,"Right","NoStop",7,6,20,6,8,17,8,265
"9",45,256,"Right",1,1,0,150,"Right","NoStop",7,6,20,6,8,17,8,265
"9",46,384.9,"Left",1,1,0,150,"Left","NoStop",7,6,20,6,8,17,8,265
"9",47,313.7,"Right",1,1,0,150,"Right","NoStop",7,6,20,6,8,17,8,265
"9",48,324.3,"Left",1,1,0,150,"Left","NoStop",7,6,20,6,8,17,8,265
"9",49,1349.493,"NoGo",NA,1,0,150,"NoGo","Stop",7,6,20,6,8,17,8,265
"9",50,165.8,"Left",1,0,1,200,"NoGo","Stop",7,6,20,6,8,17,8,265
"9",51,360.4,"Right",1,0,1,150,"NoGo","Stop",7,6,20,6,8,17,8,265
"9",52,503.1,"Right",1,1,0,100,"Right","NoStop",7,6,20,6,8,17,8,265
"9",53,303.4,"Left",1,1,0,100,"Left","NoStop",7,6,20,6,8,17,8,265
"9",54,332.1,"Right",1,1,0,100,"Right","NoStop",7,6,20,6,8,17,8,265
"9",55,1399.743,"NoGo",NA,1,0,100,"NoGo","Stop",7,6,20,6,8,17,8,265
"9",56,230.3,"Left",1,1,0,150,"Left","NoStop",7,6,20,6,8,17,8,265
"9",57,307.7,"Right",1,1,0,150,"Right","NoStop",7,6,20,6,8,17,8,265
"9",58,232.7,"Right",1,1,0,150,"Right","NoStop",7,6,20,6,8,17,8,265
"9",59,181.9,"Right",1,1,0,150,"Right","NoStop",7,6,20,6,8,17,8,265
"9",60,189.8,"Right",1,1,0,150,"Right","NoStop",7,6,20,6,8,17,8,265
"9",61,397,"Right",1,1,0,150,"Right","NoStop",7,6,20,6,8,17,8,265
"9",62,195.1,"Left",1,1,0,150,"Left","NoStop",7,6,20,6,8,17,8,265
"9",63,171.2,"Left",1,1,0,150,"Left","NoStop",7,6,20,6,8,17,8,265
"9",64,134,"Left",1,1,0,150,"Left","NoStop",7,6,20,6,8,17,8,265
"9",65,209.6,"Left",1,1,0,150,"Left","NoStop",7,6,20,6,8,17,8,265
"9",66,397.5,"Left",1,0,1,150,"NoGo","Stop",7,6,20,6,8,17,8,265
"9",67,404.4,"Right",1,1,0,100,"Right","NoStop",7,6,20,6,8,17,8,265
"9",68,1399.759,"NoGo",NA,1,0,100,"NoGo","Stop",7,6,20,6,8,17,8,265
"9",69,195,"Right",1,0,1,150,"NoGo","Stop",7,6,20,6,8,17,8,265
"9",70,1399.358,"NoGo",NA,1,0,100,"NoGo","Stop",7,6,20,6,8,17,8,265
"9",71,265.2,"Left",1,0,1,150,"NoGo","Stop",7,6,20,6,8,17,8,265
"9",72,1399.684,"NoGo",NA,1,0,100,"NoGo","Stop",7,6,20,6,8,17,8,265
"9",73,282.9,"Right",1,1,0,150,"Right","NoStop",7,6,20,6,8,17,8,265
"9",74,1349.581,"NoGo",NA,1,0,150,"NoGo","Stop",7,6,20,6,8,17,8,265
"9",75,198.7,"Left",1,1,0,200,"Left","NoStop",7,6,20,6,8,17,8,265
"9",76,213.7,"Right",1,1,0,200,"Right","NoStop",7,6,20,6,8,17,8,265
"9",77,361.1,"Right",1,1,0,200,"Right","NoStop",7,6,20,6,8,17,8,265
"9",78,306,"Left",1,1,0,200,"Left","NoStop",7,6,20,6,8,17,8,265
"9",79,153.9,"Right",1,1,0,200,"Right","NoStop",7,6,20,6,8,17,8,265
"9",80,145.2,"Right",1,1,0,200,"Right","NoStop",7,6,20,6,8,17,8,265
"9",81,170.4,"Left",1,0,1,200,"NoGo","Stop",7,6,20,6,8,17,8,265
"9",82,426.9,"Left",1,1,0,150,"Left","NoStop",7,6,20,6,8,17,8,265
"9",83,263.9,"Right",1,0,1,150,"NoGo","Stop",7,6,20,6,8,17,8,265
"9",84,398.5,"Right",1,1,0,100,"Right","NoStop",7,6,20,6,8,17,8,265
"9",85,242.4,"Right",1,1,0,100,"Right","NoStop",7,6,20,6,8,17,8,265
"9",86,298.9,"Left",1,1,0,100,"Left","NoStop",7,6,20,6,8,17,8,265
"9",87,264.2,"Left",1,1,0,100,"Left","NoStop",7,6,20,6,8,17,8,265
"9",88,371.3,"Left",1,1,0,100,"Left","NoStop",7,6,20,6,8,17,8,265
"9",89,293.4,"Left",1,1,0,100,"Left","NoStop",7,6,20,6,8,17,8,265
"9",90,210.4,"Left",1,1,0,100,"Left","NoStop",7,6,20,6,8,17,8,265
"9",91,379.6,"Right",1,0,1,100,"NoGo","Stop",7,6,20,6,8,17,8,265
"9",92,350.6,"Left",1,1,0,50,"Left","NoStop",7,6,20,6,8,17,8,265
"9",93,338.2,"Left",1,1,0,50,"Left","NoStop",7,6,20,6,8,17,8,265
"9",94,332.4,"Right",1,1,0,50,"Right","NoStop",7,6,20,6,8,17,8,265
"9",95,305.3,"Left",1,1,0,50,"Left","NoStop",7,6,20,6,8,17,8,265
"9",96,370.8,"Right",1,1,0,50,"Right","NoStop",7,6,20,6,8,17,8,265
"9",97,341,"Left",1,1,0,50,"Left","NoStop",7,6,20,6,8,17,8,265
"9",98,364.9,"Left",1,1,0,50,"Left","NoStop",7,6,20,6,8,17,8,265
"9",99,354.2,"Left",1,1,0,50,"Left","NoStop",7,6,20,6,8,17,8,265
"9",100,293,"Left",1,1,0,50,"Left","NoStop",7,6,20,6,8,17,8,265
"9",101,407.2,"Left",1,1,0,50,"Left","NoStop",7,6,20,6,8,17,8,265
"9",102,1449.62,"NoGo",NA,1,0,50,"NoGo","Stop",7,6,20,6,8,17,8,265
"9",103,357.9,"Right",1,1,0,100,"Right","NoStop",7,6,20,6,8,17,8,265
"9",104,284.9,"Left",1,1,0,100,"Left","NoStop",7,6,20,6,8,17,8,265
"9",105,261.9,"Right",1,1,0,100,"Right","NoStop",7,6,20,6,8,17,8,265
"9",106,202,"Left",1,1,0,100,"Left","NoStop",7,6,20,6,8,17,8,265
"9",107,252.5,"Left",1,0,1,100,"Right","NoStop",7,6,20,6,8,17,8,265
"9",108,1399.808,"NoGo",NA,1,0,100,"NoGo","Stop",7,6,20,6,8,17,8,265
"9",109,1349.971,"NoGo",NA,1,0,150,"NoGo","Stop",7,6,20,6,8,17,8,265
"9",110,1299.722,"NoGo",NA,1,0,200,"NoGo","Stop",7,6,20,6,8,17,8,265
"9",111,173.5,"Left",1,1,0,250,"Left","NoStop",7,6,20,6,8,17,8,265
"9",112,104.1,"Left",1,1,0,250,"Left","NoStop",7,6,20,6,8,17,8,265
"9",113,65.19999999,"Left",1,0,1,250,"NoGo","Stop",7,6,20,6,8,17,8,265
"9",114,172.5,"Left",1,0,1,200,"NoGo","Stop",7,6,20,6,8,17,8,265
"9",115,504.5,"Left",1,1,0,150,"Left","NoStop",7,6,20,6,8,17,8,265
"9",116,291.5,"Left",1,1,0,150,"Left","NoStop",7,6,20,6,8,17,8,265
"9",117,1349.905,"NoGo",NA,1,0,150,"NoGo","Stop",7,6,20,6,8,17,8,265
"9",118,167.4,"Right",1,1,0,200,"Right","NoStop",7,6,20,6,8,17,8,265
"9",119,131.7,"Right",1,1,0,200,"Right","NoStop",7,6,20,6,8,17,8,265
"9",120,138.4,"Left",1,0,1,200,"Right","NoStop",7,6,20,6,8,17,8,265
"9",121,707.8,"Right",1,1,0,200,"Right","NoStop",7,6,20,6,8,17,8,265
"9",122,1299.441,"NoGo",NA,0,1,200,"Left","NoStop",7,6,20,6,8,17,8,265
"9",123,1299.642,"NoGo",NA,0,1,200,"Left","NoStop",7,6,20,6,8,17,8,265
"9",124,1300.153,"NoGo",NA,0,1,200,"Left","NoStop",7,6,20,6,8,17,8,265
"9",125,908.5,"Left",1,1,0,200,"Left","NoStop",7,6,20,6,8,17,8,265
"9",126,380.3,"Left",1,1,0,200,"Left","NoStop",7,6,20,6,8,17,8,265
"9",127,237.9,"Right",1,1,0,200,"Right","NoStop",7,6,20,6,8,17,8,265
"9",128,144.6,"Right",1,1,0,200,"Right","NoStop",7,6,20,6,8,17,8,265
"9",129,112.7,"Right",1,0,1,200,"NoGo","Stop",7,6,20,6,8,17,8,265
"9",130,255.5,"Right",1,1,0,150,"Right","NoStop",7,6,20,6,8,17,8,265
"9",131,200.7,"Right",1,1,0,150,"Right","NoStop",7,6,20,6,8,17,8,265
"9",132,280.8,"Right",1,1,0,150,"Right","NoStop",7,6,20,6,8,17,8,265
"9",133,337.5,"Left",1,1,0,150,"Left","NoStop",7,6,20,6,8,17,8,265
"9",134,244.3,"Right",1,1,0,150,"Right","NoStop",7,6,20,6,8,17,8,265
"9",135,263,"Right",1,0,1,150,"NoGo","Stop",7,6,20,6,8,17,8,265
"9",136,275.9,"Left",1,1,0,100,"Left","NoStop",7,6,20,6,8,17,8,265
"9",137,323.6,"Right",1,1,0,100,"Right","NoStop",7,6,20,6,8,17,8,265
"9",138,375,"Left",1,1,0,100,"Left","NoStop",7,6,20,6,8,17,8,265
"9",139,301.9,"Right",1,1,0,100,"Right","NoStop",7,6,20,6,8,17,8,265
"9",140,317.1,"Left",1,1,0,100,"Left","NoStop",7,6,20,6,8,17,8,265
"9",141,284.4,"Right",1,1,0,100,"Right","NoStop",7,6,20,6,8,17,8,265
"9",142,288.6,"Right",1,1,0,100,"Right","NoStop",7,6,20,6,8,17,8,265
"9",143,1399.623,"NoGo",NA,1,0,100,"NoGo","Stop",7,6,20,6,8,17,8,265
"9",144,206.9,"Left",1,0,1,150,"NoGo","Stop",7,6,20,6,8,17,8,265
"9",145,1399.638,"NoGo",NA,1,0,100,"NoGo","Stop",7,6,20,6,8,17,8,265
"9",146,225.1,"Left",1,1,0,150,"Left","NoStop",7,6,20,6,8,17,8,265
"9",147,270,"Right",1,1,0,150,"Right","NoStop",7,6,20,6,8,17,8,265
"9",148,238.6,"Right",1,1,0,150,"Right","NoStop",7,6,20,6,8,17,8,265
"9",149,214.7,"Right",1,1,0,150,"Right","NoStop",7,6,20,6,8,17,8,265
"9",150,232.1,"Right",1,1,0,150,"Right","NoStop",7,6,20,6,8,17,8,265
"9",151,367.9,"Left",1,1,0,150,"Left","NoStop",7,6,20,6,8,17,8,265
"9",152,243.6,"Left",1,1,0,150,"Left","NoStop",7,6,20,6,8,17,8,265
"9",153,264.9,"Right",1,1,0,150,"Right","NoStop",7,6,20,6,8,17,8,265
"9",154,355.7,"Right",1,1,0,150,"Right","NoStop",7,6,20,6,8,17,8,265
"9",155,196.1,"Right",1,0,1,150,"NoGo","Stop",7,6,20,6,8,17,8,265
"9",156,496.5,"Right",1,1,0,100,"Right","NoStop",7,6,20,6,8,17,8,265
"9",157,1399.875,"NoGo",NA,1,0,100,"NoGo","Stop",7,6,20,6,8,17,8,265
"9",158,1349.674,"NoGo",NA,1,0,150,"NoGo","Stop",7,6,20,6,8,17,8,265
"9",159,147.6,"Left",1,0,1,200,"NoGo","Stop",7,6,20,6,8,17,8,265
"9",160,432.2,"Left",1,1,0,150,"Left","NoStop",7,6,20,6,8,17,8,265
"9",161,332.4,"Right",1,1,0,150,"Right","NoStop",7,6,20,6,8,17,8,265
"9",162,291.4,"Left",1,1,0,150,"Left","NoStop",7,6,20,6,8,17,8,265
"9",163,322.2,"Right",1,0,1,150,"NoGo","Stop",7,6,20,6,8,17,8,265
"9",164,372.2,"Right",1,1,0,100,"Right","NoStop",7,6,20,6,8,17,8,265
"9",165,508.5,"Left",1,1,0,100,"Left","NoStop",7,6,20,6,8,17,8,265
"9",166,262.2,"Right",1,1,0,100,"Right","NoStop",7,6,20,6,8,17,8,265
"9",167,1400.08,"NoGo",NA,1,0,100,"NoGo","Stop",7,6,20,6,8,17,8,265
"9",168,292.9,"Left",1,1,0,150,"Left","NoStop",7,6,20,6,8,17,8,265
"9",169,294.7,"Right",1,1,0,150,"Right","NoStop",7,6,20,6,8,17,8,265
"9",170,1350.127,"NoGo",NA,1,0,150,"NoGo","Stop",7,6,20,6,8,17,8,265
"9",171,213.2,"Left",1,1,0,200,"Left","NoStop",7,6,20,6,8,17,8,265
"9",172,209.7,"Right",1,1,0,200,"Right","NoStop",7,6,20,6,8,17,8,265
"9",173,304.1,"Left",1,1,0,200,"Left","NoStop",7,6,20,6,8,17,8,265
"9",174,269.4,"Left",1,1,0,200,"Left","NoStop",7,6,20,6,8,17,8,265
"9",175,412.9,"Right",1,1,0,200,"Right","NoStop",7,6,20,6,8,17,8,265
"9",176,268.9,"Right",1,1,0,200,"Right","NoStop",7,6,20,6,8,17,8,265
"9",177,187.1,"Left",1,0,1,200,"NoGo","Stop",7,6,20,6,8,17,8,265
"9",178,308.7,"Left",1,1,0,150,"Left","NoStop",7,6,20,6,8,17,8,265
"9",179,328.4,"Right",1,0,1,150,"NoGo","Stop",7,6,20,6,8,17,8,265
"9",180,559.9,"Left",1,1,0,100,"Left","NoStop",7,6,20,6,8,17,8,265
"9",181,535,"Left",1,1,0,100,"Left","NoStop",7,6,20,6,8,17,8,265
"9",182,318.5,"Left",1,1,0,100,"Left","NoStop",7,6,20,6,8,17,8,265
"9",183,246.6,"Left",1,1,0,100,"Left","NoStop",7,6,20,6,8,17,8,265
"9",184,1399.822,"NoGo",NA,1,0,100,"NoGo","Stop",7,6,20,6,8,17,8,265
"9",185,280,"Left",1,1,0,150,"Left","NoStop",7,6,20,6,8,17,8,265
"9",186,1349.243,"NoGo",NA,1,0,150,"NoGo","Stop",7,6,20,6,8,17,8,265
"9",187,136.3,"Left",1,1,0,200,"Left","NoStop",7,6,20,6,8,17,8,265
"9",188,184.4,"Left",1,1,0,200,"Left","NoStop",7,6,20,6,8,17,8,265
"9",189,242,"Right",1,1,0,200,"Right","NoStop",7,6,20,6,8,17,8,265
"9",190,140.7,"Right",1,0,1,200,"NoGo","Stop",7,6,20,6,8,17,8,265
"9",191,419.5,"Right",1,1,0,150,"Right","NoStop",7,6,20,6,8,17,8,265
"9",192,320.9,"Left",1,1,0,150,"Left","NoStop",7,6,20,6,8,17,8,265
"9",193,267.3,"Right",1,1,0,150,"Right","NoStop",7,6,20,6,8,17,8,265
"9",194,1349.703,"NoGo",NA,1,0,150,"NoGo","Stop",7,6,20,6,8,17,8,265
"9",195,291.4,"Right",1,1,0,200,"Right","NoStop",7,6,20,6,8,17,8,265
"9",196,171.2,"Left",1,0,1,200,"Right","NoStop",7,6,20,6,8,17,8,265
"9",197,181.3,"Right",1,1,0,200,"Right","NoStop",7,6,20,6,8,17,8,265
"9",198,234,"Left",1,1,0,200,"Left","NoStop",7,6,20,6,8,17,8,265
"9",199,275.2,"Left",1,1,0,200,"Left","NoStop",7,6,20,6,8,17,8,265
"9",200,185.9,"Right",1,0,1,200,"NoGo","Stop",7,6,20,6,8,17,8,265
"9",201,379.3,"Right",1,1,0,150,"Right","NoStop",7,6,20,6,8,17,8,265
"9",202,247.4,"Right",1,1,0,150,"Right","NoStop",7,6,20,6,8,17,8,265
"9",203,232.3,"Right",1,1,0,150,"Right","NoStop",7,6,20,6,8,17,8,265
"9",204,234.2,"Right",1,1,0,150,"Right","NoStop",7,6,20,6,8,17,8,265
"9",205,316.7,"Left",1,1,0,150,"Left","NoStop",7,6,20,6,8,17,8,265
"9",206,277.3,"Left",1,1,0,150,"Left","NoStop",7,6,20,6,8,17,8,265
"9",207,287.7,"Right",1,1,0,150,"Right","NoStop",7,6,20,6,8,17,8,265
"9",208,280.2,"Left",1,1,0,150,"Left","NoStop",7,6,20,6,8,17,8,265
"9",209,247.1,"Right",1,1,0,150,"Right","NoStop",7,6,20,6,8,17,8,265
"9",210,250.8,"Right",1,1,0,150,"Right","NoStop",7,6,20,6,8,17,8,265
"9",211,269.3,"Left",1,0,1,150,"NoGo","Stop",7,6,20,6,8,17,8,265
"9",212,383.3,"Right",1,1,0,100,"Right","NoStop",7,6,20,6,8,17,8,265
"9",213,310.9,"Left",1,1,0,100,"Left","NoStop",7,6,20,6,8,17,8,265
"9",214,365.7,"Left",1,1,0,100,"Left","NoStop",7,6,20,6,8,17,8,265
"9",215,517.9,"Right",1,1,0,100,"Right","NoStop",7,6,20,6,8,17,8,265
"9",216,1400.089,"NoGo",NA,1,0,100,"NoGo","Stop",7,6,20,6,8,17,8,265
"9",217,1349.605,"NoGo",NA,1,0,150,"NoGo","Stop",7,6,20,6,8,17,8,265
"9",218,1300.022,"NoGo",NA,1,0,200,"NoGo","Stop",7,6,20,6,8,17,8,265
"9",219,213.8,"Left",1,1,0,250,"Left","NoStop",7,6,20,6,8,17,8,265
"9",220,87.70000002,"Right",1,0,1,250,"NoGo","Stop",7,6,20,6,8,17,8,265
"9",221,329,"Left",1,1,0,200,"Left","NoStop",7,6,20,6,8,17,8,265
"9",222,194.4,"Left",1,0,1,200,"NoGo","Stop",7,6,20,6,8,17,8,265
"9",223,373.4,"Left",1,1,0,150,"Left","NoStop",7,6,20,6,8,17,8,265
"9",224,344.6,"Left",1,1,0,150,"Left","NoStop",7,6,20,6,8,17,8,265
"9",225,1349.525,"NoGo",NA,1,0,150,"NoGo","Stop",7,6,20,6,8,17,8,265
"9",226,171.5,"Left",1,1,0,200,"Left","NoStop",7,6,20,6,8,17,8,265
"9",227,314.9,"Left",1,1,0,200,"Left","NoStop",7,6,20,6,8,17,8,265
"9",228,191.1,"Left",1,0,1,200,"NoGo","Stop",7,6,20,6,8,17,8,265
