"id","trial_number","rt","response","attempt","correct","incorrect","ssd","answer","task","IntrusiveSum","SSRT"
2,1,0.1262,"Right",1,1,0,250,"Right","NoStop",14,261
2,2,0.1427,"Left",1,1,0,250,"Left","NoStop",14,261
2,3,0.1355,"Right",1,1,0,250,"Right","NoStop",14,261
2,4,0.1069,"Right",1,0,1,250,"NoGo","Stop",14,261
2,5,0.1586,"Right",1,1,0,200,"Right","NoStop",14,261
2,6,0.2382,"Left",1,1,0,200,"Left","NoStop",14,261
2,7,0.1462,"Right",1,1,0,200,"Right","NoStop",14,261
2,8,0.1873,"Left",1,1,0,200,"Left","NoStop",14,261
2,9,0.1926,"Right",1,1,0,200,"Right","NoStop",14,261
2,10,0.2214,"Right",1,0,1,200,"NoGo","Stop",14,261
2,11,0.2083,"Right",1,1,0,150,"Right","NoStop",14,261
2,12,0.2344,"Right",1,0,1,150,"NoGo","Stop",14,261
2,13,1.0536,"Right",1,0,1,100,"NoGo","Stop",14,261
2,14,0.3064,"Left",1,1,0,50,"Left","NoStop",14,261
2,15,0.3955,"Right",1,1,0,50,"Right","NoStop",14,261
2,16,1.449868,"NoGo",NA,1,0,50,"NoGo","Stop",14,261
2,17,0.3364,"Right",1,1,0,100,"Right","NoStop",14,261
2,18,0.2636,"Right",1,1,0,100,"Right","NoStop",14,261
2,19,0.4001,"Left",1,1,0,100,"Left","NoStop",14,261
2,20,0.3638,"Left",1,1,0,100,"Left","NoStop",14,261
2,21,0.3194,"Left",1,1,0,100,"Left","NoStop",14,261
2,22,0.2796,"Right",1,1,0,100,"Right","NoStop",14,261
2,23,0.3572,"Right",1,1,0,100,"Right","NoStop",14,261
2,24,1.39986,"NoGo",NA,1,0,100,"NoGo","Stop",14,261
2,25,0.247,"Right",1,0,1,150,"NoGo","Stop",14,261
2,26,0.2971,"Left",1,1,0,100,"Left","NoStop",14,261
2,27,0.3122,"Left",1,1,0,100,"Left","NoStop",14,261
2,28,0.3165,"Left",1,0,1,100,"NoGo","Stop",14,261
2,29,0.3991,"Right",1,1,0,50,"Right","NoStop",14,261
2,30,0.5195,"Right",1,1,0,50,"Right","NoStop",14,261
2,31,1.44995,"NoGo",NA,1,0,50,"NoGo","Stop",14,261
2,32,1.399901,"NoGo",NA,1,0,100,"NoGo","Stop",14,261
2,33,0.3693,"Left",1,1,0,150,"Left","NoStop",14,261
2,34,1.349854,"NoGo",NA,1,0,150,"NoGo","Stop",14,261
2,35,1.299808,"NoGo",NA,1,0,200,"NoGo","Stop",14,261
2,36,0.2508,"Right",1,1,0,250,"Right","NoStop",14,261
2,37,0.2015,"Left",1,1,0,250,"Left","NoStop",14,261
2,38,0.2563,"Right",1,1,0,250,"Right","NoStop",14,261
2,39,0.1723,"Left",1,1,0,250,"Left","NoStop",14,261
2,40,0.1894,"Left",1,1,0,250,"Left","NoStop",14,261
2,41,0.2504,"Right",1,1,0,250,"Right","NoStop",14,261
2,42,0.2042,"Right",1,1,0,250,"Right","NoStop",14,261
2,43,0.2254,"Left",1,0,1,250,"NoGo","Stop",14,261
2,44,0.4718,"Right",1,1,0,200,"Right","NoStop",14,261
2,45,1.299944,"NoGo",NA,1,0,200,"NoGo","Stop",14,261
2,46,0.19,"Right",1,1,0,250,"Right","NoStop",14,261
2,47,0.1997,"Right",1,1,0,250,"Right","NoStop",14,261
2,48,0.1435,"Right",1,0,1,250,"NoGo","Stop",14,261
2,49,0.352,"Right",1,1,0,200,"Right","NoStop",14,261
2,50,0.3118,"Right",1,1,0,200,"Right","NoStop",14,261
2,51,0.4196,"Left",1,1,0,200,"Left","NoStop",14,261
2,52,1.299865,"NoGo",NA,1,0,200,"NoGo","Stop",14,261
2,53,0.2011,"Right",1,1,0,250,"Right","NoStop",14,261
2,54,0.2112,"Left",1,1,0,250,"Left","NoStop",14,261
2,55,0.2844,"Right",1,1,0,250,"Right","NoStop",14,261
2,56,0.2216,"Left",1,1,0,250,"Left","NoStop",14,261
2,57,0.1863,"Left",1,0,1,250,"NoGo","Stop",14,261
2,58,0.2996,"Right",1,1,0,200,"Right","NoStop",14,261
2,59,0.3294,"Right",1,1,0,200,"Right","NoStop",14,261
2,60,0.4186,"Left",1,1,0,200,"Left","NoStop",14,261
2,61,1.299905,"NoGo",NA,1,0,200,"NoGo","Stop",14,261
2,62,0.1398,"Left",1,0,1,250,"NoGo","Stop",14,261
2,63,0.4715,"Right",1,1,0,200,"Right","NoStop",14,261
2,64,0.4672,"Right",1,1,0,200,"Right","NoStop",14,261
2,65,0.359,"Left",1,1,0,200,"Left","NoStop",14,261
2,66,0.3637,"Left",1,1,0,200,"Left","NoStop",14,261
2,67,0.2366,"Left",1,1,0,200,"Left","NoStop",14,261
2,68,0.4165,"Right",1,1,0,200,"Right","NoStop",14,261
2,69,1.300124,"NoGo",NA,1,0,200,"NoGo","Stop",14,261
2,70,0.2091,"Right",1,1,0,250,"Right","NoStop",14,261
2,71,1.249913,"NoGo",NA,1,0,250,"NoGo","Stop",14,261
2,72,0.2081,"Left",1,1,0,300,"Left","NoStop",14,261
2,73,0.3161,"Left",1,1,0,300,"Left","NoStop",14,261
2,74,0.1732,"Right",1,1,0,300,"Right","NoStop",14,261
2,75,0.2427,"Left",1,1,0,300,"Left","NoStop",14,261
2,76,0.2296,"Right",1,1,0,300,"Right","NoStop",14,261
2,77,0.1891,"Left",1,1,0,300,"Left","NoStop",14,261
2,78,0.5347,"Left",1,1,0,300,"Left","NoStop",14,261
2,79,0.2277,"Left",1,0,1,300,"NoGo","Stop",14,261
2,80,0.3279,"Left",1,1,0,250,"Left","NoStop",14,261
2,81,0.2271,"Left",1,1,0,250,"Left","NoStop",14,261
2,82,0.436,"Right",1,1,0,250,"Right","NoStop",14,261
2,83,0.2582,"Right",1,1,0,250,"Right","NoStop",14,261
2,84,0.2657,"Left",1,1,0,250,"Left","NoStop",14,261
2,85,0.2932,"Right",1,1,0,250,"Right","NoStop",14,261
2,86,0.2015,"Right",1,1,0,250,"Right","NoStop",14,261
2,87,0.1118,"Right",1,1,0,250,"Right","NoStop",14,261
2,88,1.249919,"NoGo",NA,1,0,250,"NoGo","Stop",14,261
2,89,0.1173,"Right",1,1,0,300,"Right","NoStop",14,261
2,90,0.248,"Left",1,1,0,300,"Left","NoStop",14,261
2,91,0.1801,"Left",1,1,0,300,"Left","NoStop",14,261
2,92,1.199824,"NoGo",NA,1,0,300,"NoGo","Stop",14,261
2,93,0.08740000001,"Right",1,0,1,350,"NoGo","Stop",14,261
2,94,0.3502,"Right",1,1,0,300,"Right","NoStop",14,261
2,95,0.2691,"Left",1,1,0,300,"Left","NoStop",14,261
2,96,0.2224,"Left",1,1,0,300,"Left","NoStop",14,261
2,97,0.1941,"Right",1,1,0,300,"Right","NoStop",14,261
2,98,0.2097,"Left",1,1,0,300,"Left","NoStop",14,261
2,99,0.3323,"Left",1,1,0,300,"Left","NoStop",14,261
2,100,0.1043,"Right",1,1,0,300,"Right","NoStop",14,261
2,101,0.1199,"Right",1,1,0,300,"Right","NoStop",14,261
2,102,0.1577,"Right",1,1,0,300,"Right","NoStop",14,261
2,103,1.199883,"NoGo",NA,1,0,300,"NoGo","Stop",14,261
2,104,0.03980000001,"Right",1,0,1,350,"NoGo","Stop",14,261
2,105,0.1396,"Right",1,1,0,300,"Right","NoStop",14,261
2,106,0.1271,"Right",1,0,1,300,"NoGo","Stop",14,261
2,107,0.217,"Left",1,1,0,250,"Left","NoStop",14,261
2,108,0.2292,"Right",1,1,0,250,"Right","NoStop",14,261
2,109,1.249831,"NoGo",NA,1,0,250,"NoGo","Stop",14,261
2,110,0.1278,"Left",1,1,0,300,"Left","NoStop",14,261
2,111,0.1996,"Left",1,1,0,300,"Left","NoStop",14,261
2,112,0.1846,"Right",1,1,0,300,"Right","NoStop",14,261
2,113,0.2197,"Right",1,1,0,300,"Right","NoStop",14,261
2,114,0.1467,"Right",1,1,0,300,"Right","NoStop",14,261
2,115,0.2735,"Left",1,1,0,300,"Left","NoStop",14,261
2,116,0.1334,"Left",1,1,0,300,"Left","NoStop",14,261
2,117,1.199822,"NoGo",NA,1,0,300,"NoGo","Stop",14,261
2,118,0.1613,"Left",1,0,1,350,"NoGo","Stop",14,261
2,119,0.2313,"Left",1,1,0,300,"Left","NoStop",14,261
2,120,0.2208,"Right",1,1,0,300,"Right","NoStop",14,261
2,121,0.419,"Left",1,1,0,300,"Left","NoStop",14,261
2,122,0.1585,"Left",1,1,0,300,"Left","NoStop",14,261
2,123,0.2182,"Right",1,1,0,300,"Right","NoStop",14,261
2,124,0.1425,"Left",1,1,0,300,"Left","NoStop",14,261
2,125,1.200163,"NoGo",NA,1,0,300,"NoGo","Stop",14,261
2,126,0.1043,"Left",1,1,0,350,"Left","NoStop",14,261
2,127,0.05789999998,"Left",1,1,0,350,"Left","NoStop",14,261
2,128,0.166,"Left",1,1,0,350,"Left","NoStop",14,261
2,129,0.02930000001,"Left",1,1,0,350,"Left","NoStop",14,261
2,130,0.2893,"Right",1,1,0,350,"Right","NoStop",14,261
2,131,0.1097,"Left",1,0,1,350,"NoGo","Stop",14,261
2,132,0.263,"Left",1,1,0,300,"Left","NoStop",14,261
2,133,0.1666,"Left",1,1,0,300,"Left","NoStop",14,261
2,134,0.1239,"Left",1,1,0,300,"Left","NoStop",14,261
2,135,0.1069,"Left",1,1,0,300,"Left","NoStop",14,261
2,136,0.2418,"Right",1,1,0,300,"Right","NoStop",14,261
2,137,0.2011,"Left",1,1,0,300,"Left","NoStop",14,261
2,138,0.1795,"Right",1,1,0,300,"Right","NoStop",14,261
2,139,0.1625,"Right",1,1,0,300,"Right","NoStop",14,261
2,140,0.2903,"Left",1,1,0,300,"Left","NoStop",14,261
2,141,0.2989,"Left",1,1,0,300,"Left","NoStop",14,261
2,142,1.199944,"NoGo",NA,1,0,300,"NoGo","Stop",14,261
2,143,0.3434,"Right",1,1,0,350,"Right","NoStop",14,261
2,144,0.07530000001,"Right",1,1,0,350,"Right","NoStop",14,261
2,145,0.09290000001,"Right",1,1,0,350,"Right","NoStop",14,261
2,146,0.1442,"Right",1,0,1,350,"NoGo","Stop",14,261
2,147,0.3399,"Right",1,0,1,300,"Left","NoStop",14,261
2,148,0.2266,"Left",1,1,0,300,"Left","NoStop",14,261
2,149,0.2847,"Right",1,1,0,300,"Right","NoStop",14,261
2,150,0.2922,"Right",1,1,0,300,"Right","NoStop",14,261
2,151,0.2281,"Right",1,1,0,300,"Right","NoStop",14,261
2,152,0.2537,"Right",1,1,0,300,"Right","NoStop",14,261
2,153,0.8075,"Left",1,1,0,300,"Left","NoStop",14,261
2,154,0.2789,"Left",1,1,0,300,"Left","NoStop",14,261
2,155,0.1962,"Left",1,0,1,300,"NoGo","Stop",14,261
2,156,0.6254,"Right",1,1,0,250,"Right","NoStop",14,261
2,157,0.3682,"Left",1,1,0,250,"Left","NoStop",14,261
2,158,0.301,"Left",1,1,0,250,"Left","NoStop",14,261
2,159,0.2628,"Right",1,1,0,250,"Right","NoStop",14,261
2,160,0.3104,"Left",1,1,0,250,"Left","NoStop",14,261
2,161,0.3604,"Right",1,1,0,250,"Right","NoStop",14,261
2,162,0.3455,"Left",1,1,0,250,"Left","NoStop",14,261
2,163,0.2451,"Left",1,1,0,250,"Left","NoStop",14,261
2,164,0.4292,"Left",1,1,0,250,"Left","NoStop",14,261
2,165,0.2743,"Left",1,1,0,250,"Left","NoStop",14,261
2,166,0.2429,"Left",1,1,0,250,"Left","NoStop",14,261
2,167,0.174,"Left",1,0,1,250,"NoGo","Stop",14,261
2,168,0.3318,"Right",1,1,0,200,"Right","NoStop",14,261
2,169,0.3373,"Left",1,1,0,200,"Left","NoStop",14,261
2,170,0.1991,"Right",1,1,0,200,"Right","NoStop",14,261
2,171,0.1859,"Left",1,1,0,200,"Left","NoStop",14,261
2,172,0.1987,"Left",1,0,1,200,"NoGo","Stop",14,261
2,173,1.349893,"NoGo",NA,1,0,150,"NoGo","Stop",14,261
2,174,0.2111,"Right",1,1,0,200,"Right","NoStop",14,261
2,175,0.235,"Right",1,0,1,200,"NoGo","Stop",14,261
2,176,0.2699,"Right",1,1,0,150,"Right","NoStop",14,261
2,177,1.349838,"NoGo",NA,1,0,150,"NoGo","Stop",14,261
2,178,0.2477,"Left",1,1,0,200,"Left","NoStop",14,261
2,179,0.3236,"Right",1,1,0,200,"Right","NoStop",14,261
2,180,1.299833,"NoGo",NA,1,0,200,"NoGo","Stop",14,261
2,181,0.2506,"Left",1,1,0,250,"Left","NoStop",14,261
2,182,0.1615,"Left",1,1,0,250,"Left","NoStop",14,261
2,183,0.2137,"Left",1,1,0,250,"Left","NoStop",14,261
2,184,0.3129,"Left",1,1,0,250,"Left","NoStop",14,261
2,185,0.3582,"Right",1,1,0,250,"Right","NoStop",14,261
2,186,0.2438,"Left",1,1,0,250,"Left","NoStop",14,261
2,187,1.249808,"NoGo",NA,1,0,250,"NoGo","Stop",14,261
2,188,0.1282,"Left",1,1,0,300,"Left","NoStop",14,261
2,189,0.1528,"Right",1,1,0,300,"Right","NoStop",14,261
2,190,0.2405,"Left",1,1,0,300,"Left","NoStop",14,261
2,191,0.1115,"Left",1,1,0,300,"Left","NoStop",14,261
2,192,0.2095,"Right",1,0,1,300,"NoGo","Stop",14,261
2,193,0.2551,"Right",1,1,0,250,"Right","NoStop",14,261
2,194,0.304,"Right",1,1,0,250,"Right","NoStop",14,261
2,195,0.2804,"Left",1,1,0,250,"Left","NoStop",14,261
2,196,0.1834,"Right",1,1,0,250,"Right","NoStop",14,261
2,197,1.249819,"NoGo",NA,1,0,250,"NoGo","Stop",14,261
2,198,0.1596,"Right",1,0,1,300,"NoGo","Stop",14,261
2,199,0.3672,"Right",1,1,0,250,"Right","NoStop",14,261
2,200,0.2276,"Left",1,0,1,250,"NoGo","Stop",14,261
2,201,1.299885,"NoGo",NA,1,0,200,"NoGo","Stop",14,261
2,202,0.2881,"Right",1,1,0,250,"Right","NoStop",14,261
2,203,0.3445,"Right",1,1,0,250,"Right","NoStop",14,261
2,204,0.2425,"Right",1,1,0,250,"Right","NoStop",14,261
2,205,0.4099,"Left",1,1,0,250,"Left","NoStop",14,261
2,206,0.1993,"Left",1,0,1,250,"NoGo","Stop",14,261
2,207,0.5739,"Left",1,1,0,200,"Left","NoStop",14,261
2,208,0.464,"Left",1,1,0,200,"Left","NoStop",14,261
2,209,0.4049,"Right",1,1,0,200,"Right","NoStop",14,261
2,210,0.3499,"Left",1,1,0,200,"Left","NoStop",14,261
2,211,1.299817,"NoGo",NA,1,0,200,"NoGo","Stop",14,261
2,212,0.3503,"Right",1,1,0,250,"Right","NoStop",14,261
2,213,0.3312,"Left",1,1,0,250,"Left","NoStop",14,261
2,214,0.4503,"Left",1,1,0,250,"Left","NoStop",14,261
2,215,0.2681,"Right",1,1,0,250,"Right","NoStop",14,261
2,216,0.2477,"Right",1,1,0,250,"Right","NoStop",14,261
2,217,0.3638,"Left",1,1,0,250,"Left","NoStop",14,261
2,218,0.2753,"Left",1,1,0,250,"Left","NoStop",14,261
2,219,1.249982,"NoGo",NA,1,0,250,"NoGo","Stop",14,261
2,220,0.2393,"Left",1,1,0,300,"Left","NoStop",14,261
2,221,0.312,"Left",1,1,0,300,"Left","NoStop",14,261
2,222,1.199996,"NoGo",NA,1,0,300,"NoGo","Stop",14,261
2,223,0.1343,"Left",1,0,1,350,"NoGo","Stop",14,261
2,224,1.19979,"NoGo",NA,1,0,300,"NoGo","Stop",14,261
2,225,0.08380000001,"Right",1,1,0,350,"Right","NoStop",14,261
2,226,0.2511,"Right",1,0,1,350,"NoGo","Stop",14,261
2,227,1.200048,"NoGo",NA,1,0,300,"NoGo","Stop",14,261
2,228,0.2005,"Right",1,1,0,350,"Right","NoStop",14,261
2,229,0.3106,"Right",1,1,0,350,"Right","NoStop",14,261
2,230,1.149904,"NoGo",NA,1,0,350,"NoGo","Stop",14,261
2,231,0.1058,"Left",1,0,1,400,"NoGo","Stop",14,261
2,232,0.3662,"Right",1,1,0,350,"Right","NoStop",14,261
2,233,0.271,"Right",1,1,0,350,"Right","NoStop",14,261
2,234,0.3211,"Left",1,1,0,350,"Left","NoStop",14,261
2,235,0.1605,"Right",1,0,1,350,"NoGo","Stop",14,261
2,236,0.3545,"Left",1,1,0,300,"Left","NoStop",14,261
2,237,0.261,"Right",1,1,0,300,"Right","NoStop",14,261
2,238,0.2502,"Right",1,1,0,300,"Right","NoStop",14,261
2,239,0.1554,"Right",1,1,0,300,"Right","NoStop",14,261
2,240,1.199798,"NoGo",NA,1,0,300,"NoGo","Stop",14,261
3,1,0.1373,"Right",1,1,0,250,"Right","NoStop",11,252
3,2,0.1561,"Right",1,1,0,250,"Right","NoStop",11,252
3,3,0.1556,"Right",1,1,0,250,"Right","NoStop",11,252
3,4,0.1111,"Right",1,0,1,250,"NoGo","Stop",11,252
3,5,0.3142,"Left",1,1,0,200,"Left","NoStop",11,252
3,6,0.4311999999,"Right",1,0,1,200,"NoGo","Stop",11,252
3,7,0.51,"Right",1,1,0,150,"Right","NoStop",11,252
3,8,1.349587,"NoGo",NA,1,0,150,"NoGo","Stop",11,252
3,9,1.299548,"NoGo",NA,1,0,200,"NoGo","Stop",11,252
3,10,0.2909,"Right",1,1,0,250,"Right","NoStop",11,252
3,11,0.2516,"Right",1,0,1,250,"NoGo","Stop",11,252
3,12,1.299613,"NoGo",NA,1,0,200,"NoGo","Stop",11,252
3,13,0.4109,"Right",1,1,0,250,"Right","NoStop",11,252
3,14,0.1322,"Right",1,1,0,250,"Right","NoStop",11,252
3,15,0.3753000001,"Left",1,1,0,250,"Left","NoStop",11,252
3,16,0.2356,"Left",1,1,0,250,"Left","NoStop",11,252
3,17,0.4007,"Right",1,1,0,250,"Right","NoStop",11,252
3,18,0.1057,"Right",1,1,0,250,"Right","NoStop",11,252
3,19,0.2605,"Right",1,1,0,250,"Right","NoStop",11,252
3,20,0.3676999999,"Left",1,1,0,250,"Left","NoStop",11,252
3,21,1.249483,"NoGo",NA,1,0,250,"NoGo","Stop",11,252
3,22,0.2967,"Right",1,1,0,300,"Right","NoStop",11,252
3,23,0.0425,"Left",1,1,0,300,"Left","NoStop",11,252
3,24,0.1329,"Right",1,1,0,300,"Right","NoStop",11,252
3,25,0.1029,"Left",1,0,1,300,"NoGo","Stop",11,252
3,26,0.4323,"Left",1,1,0,250,"Left","NoStop",11,252
3,27,0.1424,"Right",1,1,0,250,"Right","NoStop",11,252
3,28,0.3392,"Right",1,1,0,250,"Right","NoStop",11,252
3,29,0.5653000001,"Right",1,1,0,250,"Right","NoStop",11,252
3,30,0.2241,"Left",1,1,0,250,"Left","NoStop",11,252
3,31,0.2706,"Left",1,1,0,250,"Left","NoStop",11,252
3,32,0.2424,"Right",1,1,0,250,"Right","NoStop",11,252
3,33,0.1838,"Left",1,1,0,250,"Left","NoStop",11,252
3,34,0.4079000001,"Right",1,1,0,250,"Right","NoStop",11,252
3,35,1.249522,"NoGo",NA,1,0,250,"NoGo","Stop",11,252
3,36,0.1129,"Left",1,1,0,300,"Left","NoStop",11,252
3,37,0.1061,"Left",1,1,0,300,"Left","NoStop",11,252
3,38,0.2511,"Right",1,1,0,300,"Right","NoStop",11,252
3,39,0.184,"Left",1,1,0,300,"Left","NoStop",11,252
3,40,0.2466,"Right",1,1,0,300,"Right","NoStop",11,252
3,41,0.1831999999,"Right",1,1,0,300,"Right","NoStop",11,252
3,42,0.3002,"Left",1,1,0,300,"Left","NoStop",11,252
3,43,1.199494,"NoGo",NA,1,0,300,"NoGo","Stop",11,252
3,44,0.0320999999,"Left",1,1,0,350,"Left","NoStop",11,252
3,45,0.2523000001,"Left",1,1,0,350,"Left","NoStop",11,252
3,46,1.149547,"NoGo",NA,1,0,350,"NoGo","Stop",11,252
3,47,0.09,"Left",1,1,0,400,"Left","NoStop",11,252
3,48,0.04119999993,"Right",1,1,0,400,"Right","NoStop",11,252
3,49,0.0845,"Left",1,0,1,400,"NoGo","Stop",11,252
3,50,0.1562,"Left",1,1,0,350,"Left","NoStop",11,252
3,51,0.2156999999,"Left",1,1,0,350,"Left","NoStop",11,252
3,52,0.1648000001,"Right",1,1,0,350,"Right","NoStop",11,252
3,53,0.1141,"Left",1,0,1,350,"NoGo","Stop",11,252
3,54,0.1369,"Left",1,1,0,300,"Left","NoStop",11,252
3,55,0.1439,"Left",1,1,0,300,"Left","NoStop",11,252
3,56,0.1424,"Right",1,1,0,300,"Right","NoStop",11,252
3,57,0.1566999999,"Right",1,1,0,300,"Right","NoStop",11,252
3,58,0.2782,"Left",1,1,0,300,"Left","NoStop",11,252
3,59,0.1105,"Right",1,1,0,300,"Right","NoStop",11,252
3,60,0.178,"Left",1,1,0,300,"Left","NoStop",11,252
3,61,1.0131,"Right",1,1,0,300,"Right","NoStop",11,252
3,62,0.08060000002,"Right",1,0,1,300,"NoGo","Stop",11,252
3,63,0.2661999999,"Left",1,1,0,250,"Left","NoStop",11,252
3,64,0.1589,"Left",1,1,0,250,"Left","NoStop",11,252
3,65,0.1224,"Left",1,1,0,250,"Left","NoStop",11,252
3,66,0.04929999995,"Left",1,1,0,250,"Left","NoStop",11,252
3,67,0.2348000001,"Right",1,1,0,250,"Right","NoStop",11,252
3,68,0.3823,"Right",1,1,0,250,"Right","NoStop",11,252
3,69,0.09969999993,"Right",1,1,0,250,"Right","NoStop",11,252
3,70,0.1691,"Left",1,1,0,250,"Left","NoStop",11,252
3,71,0.1971999999,"Right",1,1,0,250,"Right","NoStop",11,252
3,72,0.04429999995,"Right",1,0,1,250,"NoGo","Stop",11,252
3,73,0.1798,"Left",1,1,0,200,"Left","NoStop",11,252
3,74,0.1398,"Left",1,1,0,200,"Left","NoStop",11,252
3,75,0.1933,"Right",1,1,0,200,"Right","NoStop",11,252
3,76,0.1452,"Left",1,1,0,200,"Left","NoStop",11,252
3,77,0.3635999999,"Right",1,1,0,200,"Right","NoStop",11,252
3,78,0.2248,"Right",1,1,0,200,"Right","NoStop",11,252
3,79,0.1486999999,"Left",1,1,0,200,"Left","NoStop",11,252
3,80,0.1781,"Right",1,0,1,200,"NoGo","Stop",11,252
3,81,0.2194,"Left",1,1,0,150,"Left","NoStop",11,252
3,82,0.2138000001,"Right",1,1,0,150,"Right","NoStop",11,252
3,83,0.4283,"Left",1,1,0,150,"Left","NoStop",11,252
3,84,0.218,"Right",1,1,0,150,"Right","NoStop",11,252
3,85,0.1934,"Left",1,0,1,150,"NoGo","Stop",11,252
3,86,1.399861,"NoGo",NA,1,0,100,"NoGo","Stop",11,252
3,87,0.2464,"Right",1,1,0,150,"Right","NoStop",11,252
3,88,0.2023,"Right",1,1,0,150,"Right","NoStop",11,252
3,89,0.2157,"Right",1,1,0,150,"Right","NoStop",11,252
3,90,0.2035,"Right",1,1,0,150,"Right","NoStop",11,252
3,91,0.2761999999,"Left",1,1,0,150,"Left","NoStop",11,252
3,92,0.3520999999,"Right",1,1,0,150,"Right","NoStop",11,252
3,93,1.349506,"NoGo",NA,1,0,150,"NoGo","Stop",11,252
3,94,0.1421,"Right",1,1,0,200,"Right","NoStop",11,252
3,95,0.1587,"Right",1,0,1,200,"NoGo","Stop",11,252
3,96,0.6318000001,"Right",1,0,1,150,"Left","NoStop",11,252
3,97,0.202,"Right",1,1,0,150,"Right","NoStop",11,252
3,98,0.5325,"Left",1,1,0,150,"Left","NoStop",11,252
3,99,0.2174,"Left",1,1,0,150,"Left","NoStop",11,252
3,100,0.2694,"Right",1,1,0,150,"Right","NoStop",11,252
3,101,0.1962,"Right",1,1,0,150,"Right","NoStop",11,252
3,102,0.2454,"Left",1,1,0,150,"Left","NoStop",11,252
3,103,0.1948000001,"Right",1,0,1,150,"NoGo","Stop",11,252
3,104,0.2120999999,"Right",1,1,0,100,"Right","NoStop",11,252
3,105,0.2946,"Left",1,1,0,100,"Left","NoStop",11,252
3,106,0.2908000001,"Left",1,1,0,100,"Left","NoStop",11,252
3,107,0.2691,"Right",1,1,0,100,"Right","NoStop",11,252
3,108,0.453,"Left",1,1,0,100,"Left","NoStop",11,252
3,109,0.2035,"Right",1,0,1,100,"NoGo","Stop",11,252
3,110,0.3173,"Right",1,1,0,50,"Right","NoStop",11,252
3,111,0.3824,"Right",1,1,0,50,"Right","NoStop",11,252
3,112,1.449484,"NoGo",NA,1,0,50,"NoGo","Stop",11,252
3,113,0.4240999999,"Left",1,1,0,100,"Left","NoStop",11,252
3,114,0.2096,"Right",1,1,0,100,"Right","NoStop",11,252
3,115,1.39933,"NoGo",NA,1,0,100,"NoGo","Stop",11,252
3,116,0.2584,"Right",1,0,1,150,"NoGo","Stop",11,252
3,117,0.4903000001,"Left",1,1,0,100,"Left","NoStop",11,252
3,118,0.3514,"Right",1,1,0,100,"Right","NoStop",11,252
3,119,0.2562,"Right",1,1,0,100,"Right","NoStop",11,252
3,120,0.2460999999,"Right",1,1,0,100,"Right","NoStop",11,252
3,121,1.0959,"Right",1,1,0,100,"Right","NoStop",11,252
3,122,0.24,"Right",1,1,0,100,"Right","NoStop",11,252
3,123,0.2343,"Right",1,1,0,100,"Right","NoStop",11,252
3,124,0.3414,"Left",1,0,1,100,"NoGo","Stop",11,252
3,125,0.3916,"Right",1,1,0,50,"Right","NoStop",11,252
3,126,0.3303000001,"Right",1,1,0,50,"Right","NoStop",11,252
3,127,0.4526999999,"Left",1,1,0,50,"Left","NoStop",11,252
3,128,0.335,"Right",1,1,0,50,"Right","NoStop",11,252
3,129,0.3271,"Left",1,1,0,50,"Left","NoStop",11,252
3,130,1.449283,"NoGo",NA,1,0,50,"NoGo","Stop",11,252
3,131,0.3287,"Left",1,1,0,100,"Left","NoStop",11,252
3,132,0.2836,"Left",1,1,0,100,"Left","NoStop",11,252
3,133,1.399487,"NoGo",NA,1,0,100,"NoGo","Stop",11,252
3,134,0.2483000001,"Right",1,1,0,150,"Right","NoStop",11,252
3,135,0.2857,"Left",1,1,0,150,"Left","NoStop",11,252
3,136,0.2674000001,"Left",1,1,0,150,"Left","NoStop",11,252
3,137,0.3702,"Right",1,1,0,150,"Right","NoStop",11,252
3,138,0.2485,"Right",1,0,1,150,"NoGo","Stop",11,252
3,139,0.2945,"Right",1,1,0,100,"Right","NoStop",11,252
3,140,0.2712,"Left",1,1,0,100,"Left","NoStop",11,252
3,141,0.3516999999,"Right",1,1,0,100,"Right","NoStop",11,252
3,142,1.399534,"NoGo",NA,1,0,100,"NoGo","Stop",11,252
3,143,0.2339,"Right",1,1,0,150,"Right","NoStop",11,252
3,144,0.362,"Right",1,1,0,150,"Right","NoStop",11,252
3,145,0.2631,"Left",1,1,0,150,"Left","NoStop",11,252
3,146,0.3821,"Right",1,1,0,150,"Right","NoStop",11,252
3,147,0.3199,"Left",1,1,0,150,"Left","NoStop",11,252
3,148,0.2768000001,"Right",1,0,1,150,"NoGo","Stop",11,252
3,149,0.4161999999,"Right",1,1,0,100,"Right","NoStop",11,252
3,150,0.3576,"Left",1,1,0,100,"Left","NoStop",11,252
3,151,0.2954000001,"Right",1,1,0,100,"Right","NoStop",11,252
3,152,1.39934,"NoGo",NA,1,0,100,"NoGo","Stop",11,252
3,153,0.278,"Right",1,1,0,150,"Right","NoStop",11,252
3,154,0.3075,"Left",1,1,0,150,"Left","NoStop",11,252
3,155,0.1890999999,"Right",1,1,0,150,"Right","NoStop",11,252
3,156,0.1903,"Right",1,0,1,150,"NoGo","Stop",11,252
3,157,0.3301,"Left",1,1,0,100,"Left","NoStop",11,252
3,158,0.2927,"Left",1,1,0,100,"Left","NoStop",11,252
3,159,0.2829,"Left",1,1,0,100,"Left","NoStop",11,252
3,160,1.399552,"NoGo",NA,1,0,100,"NoGo","Stop",11,252
3,161,1.349103,"NoGo",NA,1,0,150,"NoGo","Stop",11,252
3,162,0.1596,"Right",1,1,0,200,"Right","NoStop",11,252
3,163,0.1643,"Right",1,0,1,200,"NoGo","Stop",11,252
3,164,1.349367,"NoGo",NA,1,0,150,"NoGo","Stop",11,252
3,165,0.2294,"Right",1,1,0,200,"Right","NoStop",11,252
3,166,1.299444,"NoGo",NA,1,0,200,"NoGo","Stop",11,252
3,167,0.1775,"Right",1,0,1,250,"NoGo","Stop",11,252
3,168,0.2458000001,"Left",1,1,0,200,"Left","NoStop",11,252
3,169,0.2435,"Left",1,1,0,200,"Left","NoStop",11,252
3,170,0.2590999999,"Right",1,1,0,200,"Right","NoStop",11,252
3,171,0.3116,"Left",1,1,0,200,"Left","NoStop",11,252
3,172,0.1689,"Left",1,1,0,200,"Left","NoStop",11,252
3,173,0.1978,"Left",1,1,0,200,"Left","NoStop",11,252
3,174,0.73,"Left",1,1,0,200,"Left","NoStop",11,252
3,175,0.3402,"Left",1,1,0,200,"Left","NoStop",11,252
3,176,1.29917,"NoGo",NA,1,0,200,"NoGo","Stop",11,252
3,177,0.1762,"Left",1,1,0,250,"Left","NoStop",11,252
3,178,0.1336,"Left",1,1,0,250,"Left","NoStop",11,252
3,179,0.178,"Right",1,1,0,250,"Right","NoStop",11,252
3,180,0.1946999999,"Left",1,1,0,250,"Left","NoStop",11,252
3,181,0.1695,"Left",1,1,0,250,"Left","NoStop",11,252
3,182,0.1189000001,"Right",1,0,1,250,"NoGo","Stop",11,252
3,183,0.205,"Right",1,1,0,200,"Right","NoStop",11,252
3,184,0.1881999999,"Left",1,1,0,200,"Left","NoStop",11,252
3,185,0.1751999999,"Left",1,1,0,200,"Left","NoStop",11,252
3,186,0.184,"Right",1,1,0,200,"Right","NoStop",11,252
3,187,0.1677,"Right",1,0,1,200,"NoGo","Stop",11,252
3,188,0.2461999999,"Left",1,0,1,150,"NoGo","Stop",11,252
3,189,0.519,"Left",1,1,0,100,"Left","NoStop",11,252
3,190,1.399773,"NoGo",NA,1,0,100,"NoGo","Stop",11,252
3,191,0.2234,"Right",1,1,0,150,"Right","NoStop",11,252
3,192,1.349713,"NoGo",NA,1,0,150,"NoGo","Stop",11,252
3,193,0.2368,"Left",1,1,0,200,"Left","NoStop",11,252
3,194,0.1821,"Left",1,0,1,200,"NoGo","Stop",11,252
3,195,0.3250999999,"Right",1,1,0,150,"Right","NoStop",11,252
3,196,1.349748,"NoGo",NA,1,0,150,"NoGo","Stop",11,252
3,197,0.2161999999,"Left",1,1,0,200,"Left","NoStop",11,252
3,198,0.1799000001,"Left",1,0,1,200,"NoGo","Stop",11,252
3,199,0.3504,"Left",1,1,0,150,"Left","NoStop",11,252
3,200,0.204,"Left",1,1,0,150,"Left","NoStop",11,252
3,201,0.212,"Left",1,0,1,150,"NoGo","Stop",11,252
3,202,0.3285,"Right",1,0,1,100,"NoGo","Stop",11,252
3,203,0.3824,"Left",1,1,0,50,"Left","NoStop",11,252
3,204,0.3404,"Right",1,1,0,50,"Right","NoStop",11,252
3,205,1.449672,"NoGo",NA,1,0,50,"NoGo","Stop",11,252
3,206,0.2782,"Right",1,1,0,100,"Right","NoStop",11,252
3,207,0.3449,"Right",1,1,0,100,"Right","NoStop",11,252
3,208,0.3675999999,"Right",1,1,0,100,"Right","NoStop",11,252
3,209,1.399548,"NoGo",NA,1,0,100,"NoGo","Stop",11,252
3,210,0.2814,"Right",1,1,0,150,"Right","NoStop",11,252
3,211,1.349436,"NoGo",NA,1,0,150,"NoGo","Stop",11,252
3,212,0.382,"Left",1,1,0,200,"Left","NoStop",11,252
3,213,0.1772,"Right",1,1,0,200,"Right","NoStop",11,252
3,214,0.3045,"Left",1,1,0,200,"Left","NoStop",11,252
3,215,0.2001,"Right",1,1,0,200,"Right","NoStop",11,252
3,216,0.1979,"Left",1,1,0,200,"Left","NoStop",11,252
3,217,0.1555,"Left",1,0,1,200,"NoGo","Stop",11,252
3,218,0.2662,"Left",1,1,0,150,"Left","NoStop",11,252
3,219,0.1975,"Left",1,1,0,150,"Left","NoStop",11,252
3,220,0.2769,"Right",1,1,0,150,"Right","NoStop",11,252
3,221,1.350279,"NoGo",NA,1,0,150,"NoGo","Stop",11,252
3,222,0.2495,"Left",1,1,0,200,"Left","NoStop",11,252
3,223,0.1605,"Left",1,0,1,200,"NoGo","Stop",11,252
3,224,0.2485999999,"Left",1,1,0,150,"Left","NoStop",11,252
3,225,1.349489,"NoGo",NA,1,0,150,"NoGo","Stop",11,252
3,226,0.375,"Left",1,1,0,200,"Left","NoStop",11,252
3,227,0.2725999999,"Right",1,1,0,200,"Right","NoStop",11,252
3,228,0.4475,"Left",1,1,0,200,"Left","NoStop",11,252
3,229,1.299546,"NoGo",NA,1,0,200,"NoGo","Stop",11,252
3,230,0.1533000001,"Left",1,1,0,250,"Left","NoStop",11,252
3,231,0.3223000001,"Right",1,1,0,250,"Right","NoStop",11,252
3,232,1.249077,"NoGo",NA,0,1,250,"Right","NoStop",11,252
3,233,0.3238,"Right",1,1,0,250,"Right","NoStop",11,252
3,234,0.1836,"Right",1,0,1,250,"NoGo","Stop",11,252
3,235,0.2151,"Left",1,1,0,200,"Left","NoStop",11,252
3,236,0.2580999999,"Left",1,0,1,200,"NoGo","Stop",11,252
3,237,0.3557,"Right",1,1,0,150,"Right","NoStop",11,252
3,238,1.349095,"NoGo",NA,0,1,150,"Left","NoStop",11,252
3,239,0.2774,"Left",1,1,0,150,"Left","NoStop",11,252
3,240,0.6824,"Left",1,1,0,150,"Left","NoStop",11,252
4,1,0.036,"Right",1,1,0,250,"Right","NoStop",2,758
4,2,0.0415,"Right",1,0,1,250,"NoGo","Stop",2,758
4,3,0.1377,"Left",1,0,1,200,"NoGo","Stop",2,758
4,4,0.0455,"Right",1,0,1,150,"Left","NoStop",2,758
4,5,0.1839,"Left",1,0,1,150,"NoGo","Stop",2,758
4,6,0.3142,"Left",1,1,0,100,"Left","NoStop",2,758
4,7,0.187,"Left",1,1,0,100,"Left","NoStop",2,758
4,8,0.1701,"Left",1,0,1,100,"NoGo","Stop",2,758
4,9,0.2816,"Right",1,1,0,50,"Right","NoStop",2,758
4,10,0.2263,"Right",1,0,1,50,"Left","NoStop",2,758
4,11,0.2743,"Right",1,1,0,50,"Right","NoStop",2,758
4,12,0.1943,"Left",1,1,0,50,"Left","NoStop",2,758
4,13,0.236,"Right",1,1,0,50,"Right","NoStop",2,758
4,14,0.2175,"Left",1,1,0,50,"Left","NoStop",2,758
4,15,0.2346,"Left",1,1,0,50,"Left","NoStop",2,758
4,16,0.1986,"Left",1,0,1,50,"Right","NoStop",2,758
4,17,0.2854,"Right",1,1,0,50,"Right","NoStop",2,758
4,18,0.2277,"Left",1,1,0,50,"Left","NoStop",2,758
4,19,0.2336,"Right",1,1,0,50,"Right","NoStop",2,758
4,20,0.3479,"Right",1,1,0,50,"Right","NoStop",2,758
4,21,0.2303,"Left",1,0,1,50,"NoGo","Stop",2,758
4,22,0.2535,"Right",1,0,1,50,"NoGo","Stop",2,758
4,23,0.2691,"Left",1,1,0,50,"Left","NoStop",2,758
4,24,0.2163,"Right",1,1,0,50,"Right","NoStop",2,758
4,25,0.179,"Left",1,1,0,50,"Left","NoStop",2,758
4,26,0.3396,"Left",1,1,0,50,"Left","NoStop",2,758
4,27,0.2285,"Left",1,1,0,50,"Left","NoStop",2,758
4,28,0.4676,"Right",1,0,1,50,"NoGo","Stop",2,758
4,29,0.9716,"Right",1,0,1,50,"NoGo","Stop",2,758
4,30,0.3703,"Right",1,1,0,50,"Right","NoStop",2,758
4,31,0.8046,"Right",1,0,1,50,"NoGo","Stop",2,758
4,32,0.3925,"Right",1,1,0,50,"Right","NoStop",2,758
4,33,0.359,"Left",1,1,0,50,"Left","NoStop",2,758
4,34,0.309,"Left",1,1,0,50,"Left","NoStop",2,758
4,35,0.7617,"Left",1,0,1,50,"NoGo","Stop",2,758
4,36,0.2429,"Right",1,1,0,50,"Right","NoStop",2,758
4,37,0.2819,"Right",1,1,0,50,"Right","NoStop",2,758
4,38,0.2464,"Right",1,1,0,50,"Right","NoStop",2,758
4,39,0.1925,"Right",1,0,1,50,"Left","NoStop",2,758
4,40,0.3496,"Left",1,1,0,50,"Left","NoStop",2,758
4,41,0.4883,"Left",1,0,1,50,"NoGo","Stop",2,758
4,42,0.7664,"Left",1,1,0,50,"Left","NoStop",2,758
4,43,0.2993,"Right",1,1,0,50,"Right","NoStop",2,758
4,44,0.2639,"Right",1,1,0,50,"Right","NoStop",2,758
4,45,0.196,"Right",1,0,1,50,"Left","NoStop",2,758
4,46,0.8474,"Left",1,0,1,50,"NoGo","Stop",2,758
4,47,0.3008,"Right",1,1,0,50,"Right","NoStop",2,758
4,48,0.6063,"Left",1,1,0,50,"Left","NoStop",2,758
4,49,0.3029,"Left",1,1,0,50,"Left","NoStop",2,758
4,50,0.5066,"Right",1,1,0,50,"Right","NoStop",2,758
4,51,0.2973,"Left",1,1,0,50,"Left","NoStop",2,758
4,52,0.2875,"Right",1,0,1,50,"NoGo","Stop",2,758
4,53,0.3343,"Right",1,1,0,50,"Right","NoStop",2,758
4,54,0.274,"Left",1,1,0,50,"Left","NoStop",2,758
4,55,0.333,"Left",1,1,0,50,"Left","NoStop",2,758
4,56,0.3074,"Right",1,1,0,50,"Right","NoStop",2,758
4,57,0.7669,"Left",1,0,1,50,"NoGo","Stop",2,758
4,58,0.3253,"Left",1,1,0,50,"Left","NoStop",2,758
4,59,0.2856,"Left",1,1,0,50,"Left","NoStop",2,758
4,60,0.2978,"Right",1,1,0,50,"Right","NoStop",2,758
4,61,0.263,"Right",1,1,0,50,"Right","NoStop",2,758
4,62,0.2919,"Right",1,0,1,50,"NoGo","Stop",2,758
4,63,0.2612,"Right",1,1,0,50,"Right","NoStop",2,758
4,64,0.2654,"Right",1,1,0,50,"Right","NoStop",2,758
4,65,0.3175,"Left",1,1,0,50,"Left","NoStop",2,758
4,66,0.2556,"Left",1,1,0,50,"Left","NoStop",2,758
4,67,0.327,"Right",1,1,0,50,"Right","NoStop",2,758
4,68,0.736,"Left",1,0,1,50,"NoGo","Stop",2,758
4,69,0.331,"Left",1,1,0,50,"Left","NoStop",2,758
4,70,0.333,"Left",1,1,0,50,"Left","NoStop",2,758
4,71,0.3183,"Right",1,1,0,50,"Right","NoStop",2,758
4,72,0.2759,"Right",1,1,0,50,"Right","NoStop",2,758
4,73,0.311,"Left",1,0,1,50,"NoGo","Stop",2,758
4,74,0.3279,"Left",1,1,0,50,"Left","NoStop",2,758
4,75,0.7264,"Right",1,0,1,50,"NoGo","Stop",2,758
4,76,0.3743,"Left",1,1,0,50,"Left","NoStop",2,758
4,77,0.2832,"Left",1,1,0,50,"Left","NoStop",2,758
4,78,0.7294,"Left",1,0,1,50,"NoGo","Stop",2,758
4,79,0.2281,"Right",1,0,1,50,"Left","NoStop",2,758
4,80,0.306,"Right",1,1,0,50,"Right","NoStop",2,758
4,81,0.2998,"Left",1,1,0,50,"Left","NoStop",2,758
4,82,0.7665,"Right",1,0,1,50,"NoGo","Stop",2,758
4,83,0.234,"Left",1,0,1,50,"NoGo","Stop",2,758
4,84,0.3155,"Right",1,1,0,50,"Right","NoStop",2,758
4,85,0.7517,"Left",1,0,1,50,"NoGo","Stop",2,758
4,86,0.2478,"Right",1,1,0,50,"Right","NoStop",2,758
4,87,0.304,"Right",1,0,1,50,"NoGo","Stop",2,758
4,88,0.4511,"Right",1,1,0,50,"Right","NoStop",2,758
4,89,0.8437,"Right",1,0,1,50,"NoGo","Stop",2,758
4,90,0.3315,"Left",1,1,0,50,"Left","NoStop",2,758
4,91,0.3662,"Right",1,1,0,50,"Right","NoStop",2,758
4,92,0.359,"Right",1,1,0,50,"Right","NoStop",2,758
4,93,0.344,"Left",1,0,1,50,"NoGo","Stop",2,758
4,94,0.2888,"Right",1,1,0,50,"Right","NoStop",2,758
4,95,0.741,"Left",1,0,1,50,"NoGo","Stop",2,758
4,96,0.8462,"Left",1,0,1,50,"NoGo","Stop",2,758
4,97,0.2721,"Right",1,1,0,50,"Right","NoStop",2,758
4,98,0.2255,"Right",1,1,0,50,"Right","NoStop",2,758
4,99,0.7365,"Right",1,0,1,50,"NoGo","Stop",2,758
4,100,0.62,"Right",1,1,0,50,"Right","NoStop",2,758
4,101,0.2819,"Right",1,1,0,50,"Right","NoStop",2,758
4,102,0.3531,"Left",1,0,1,50,"NoGo","Stop",2,758
4,103,0.3562,"Right",1,0,1,50,"NoGo","Stop",2,758
4,104,0.8298,"Left",1,0,1,50,"NoGo","Stop",2,758
4,105,0.4263,"Right",1,1,0,50,"Right","NoStop",2,758
4,106,0.7126,"Right",1,0,1,50,"NoGo","Stop",2,758
4,107,0.3157,"Left",1,0,1,50,"NoGo","Stop",2,758
4,108,0.3734,"Right",1,1,0,50,"Right","NoStop",2,758
4,109,0.7246,"Left",1,0,1,50,"NoGo","Stop",2,758
4,110,0.3818,"Right",1,1,0,50,"Right","NoStop",2,758
4,111,0.7163,"Right",1,0,1,50,"NoGo","Stop",2,758
4,112,0.4581,"Left",1,1,0,50,"Left","NoStop",2,758
4,113,0.3508,"Left",1,0,1,50,"NoGo","Stop",2,758
4,114,0.4065,"Right",1,1,0,50,"Right","NoStop",2,758
4,115,0.3162,"Right",1,1,0,50,"Right","NoStop",2,758
4,116,0.5059,"Left",1,1,0,50,"Left","NoStop",2,758
4,117,0.2852,"Left",1,0,1,50,"NoGo","Stop",2,758
4,118,0.312,"Right",1,1,0,50,"Right","NoStop",2,758
4,119,0.4853,"Left",1,1,0,50,"Left","NoStop",2,758
4,120,0.2577,"Right",1,1,0,50,"Right","NoStop",2,758
4,121,0.3336,"Left",1,1,0,50,"Left","NoStop",2,758
4,122,0.2538,"Right",1,1,0,50,"Right","NoStop",2,758
4,123,0.2294,"Left",1,1,0,50,"Left","NoStop",2,758
4,124,0.2652,"Left",1,1,0,50,"Left","NoStop",2,758
4,125,0.2645,"Right",1,1,0,50,"Right","NoStop",2,758
4,126,0.2428,"Left",1,1,0,50,"Left","NoStop",2,758
4,127,0.3421,"Left",1,1,0,50,"Left","NoStop",2,758
4,128,0.2935,"Right",1,1,0,50,"Right","NoStop",2,758
4,129,0.3425,"Right",1,1,0,50,"Right","NoStop",2,758
4,130,0.3176,"Right",1,1,0,50,"Right","NoStop",2,758
4,131,0.3132,"Right",1,0,1,50,"NoGo","Stop",2,758
4,132,0.3196,"Left",1,1,0,50,"Left","NoStop",2,758
4,133,0.3404,"Left",1,1,0,50,"Left","NoStop",2,758
4,134,0.2584,"Left",1,1,0,50,"Left","NoStop",2,758
4,135,0.333,"Right",1,1,0,50,"Right","NoStop",2,758
4,136,0.3144,"Right",1,0,1,50,"NoGo","Stop",2,758
4,137,0.293,"Right",1,1,0,50,"Right","NoStop",2,758
4,138,0.2729,"Right",1,1,0,50,"Right","NoStop",2,758
4,139,0.3561,"Left",1,1,0,50,"Left","NoStop",2,758
4,140,0.2986,"Right",1,1,0,50,"Right","NoStop",2,758
4,141,0.3083,"Right",1,1,0,50,"Right","NoStop",2,758
4,142,0.2285,"Left",1,0,1,50,"NoGo","Stop",2,758
4,143,0.3105,"Left",1,1,0,50,"Left","NoStop",2,758
4,144,0.3141,"Right",1,1,0,50,"Right","NoStop",2,758
4,145,0.2727,"Left",1,1,0,50,"Left","NoStop",2,758
4,146,0.2988,"Left",1,1,0,50,"Left","NoStop",2,758
4,147,0.2639,"Left",1,1,0,50,"Left","NoStop",2,758
4,148,0.2741,"Right",1,1,0,50,"Right","NoStop",2,758
4,149,0.3031,"Right",1,1,0,50,"Right","NoStop",2,758
4,150,0.2634,"Right",1,0,1,50,"NoGo","Stop",2,758
4,151,0.2492,"Left",1,1,0,50,"Left","NoStop",2,758
4,152,0.7259,"Right",1,0,1,50,"NoGo","Stop",2,758
4,153,0.3362,"Left",1,1,0,50,"Left","NoStop",2,758
4,154,0.2746,"Left",1,1,0,50,"Left","NoStop",2,758
4,155,0.52,"Right",1,1,0,50,"Right","NoStop",2,758
4,156,0.3119,"Right",1,1,0,50,"Right","NoStop",2,758
4,157,0.7107,"Right",1,0,1,50,"NoGo","Stop",2,758
4,158,0.2905,"Left",1,0,1,50,"NoGo","Stop",2,758
4,159,0.7267,"Left",1,0,1,50,"NoGo","Stop",2,758
4,160,0.3023,"Right",1,1,0,50,"Right","NoStop",2,758
4,161,0.8581,"Left",1,0,1,50,"NoGo","Stop",2,758
4,162,0.3572,"Right",1,1,0,50,"Right","NoStop",2,758
4,163,0.2664,"Left",1,1,0,50,"Left","NoStop",2,758
4,164,0.3512,"Left",1,1,0,50,"Left","NoStop",2,758
4,165,0.3491,"Left",1,1,0,50,"Left","NoStop",2,758
4,166,0.2952,"Left",1,1,0,50,"Left","NoStop",2,758
4,167,0.312,"Left",1,1,0,50,"Left","NoStop",2,758
4,168,0.2556,"Left",1,1,0,50,"Left","NoStop",2,758
4,169,0.3595,"Right",1,1,0,50,"Right","NoStop",2,758
4,170,0.4378,"Left",1,1,0,50,"Left","NoStop",2,758
4,171,0.4137,"Left",1,1,0,50,"Left","NoStop",2,758
4,172,0.301,"Right",1,1,0,50,"Right","NoStop",2,758
4,173,0.247,"Left",1,1,0,50,"Left","NoStop",2,758
4,174,0.3581,"Right",1,1,0,50,"Right","NoStop",2,758
4,175,0.3047,"Left",1,1,0,50,"Left","NoStop",2,758
4,176,0.2789,"Right",1,1,0,50,"Right","NoStop",2,758
4,177,0.3427,"Right",1,1,0,50,"Right","NoStop",2,758
4,178,0.2503,"Left",1,1,0,50,"Left","NoStop",2,758
4,179,0.33,"Right",1,0,1,50,"NoGo","Stop",2,758
4,180,0.2887,"Left",1,1,0,50,"Left","NoStop",2,758
4,181,0.3554,"Right",1,1,0,50,"Right","NoStop",2,758
4,182,0.2659,"Left",1,1,0,50,"Left","NoStop",2,758
4,183,0.2542,"Right",1,0,1,50,"NoGo","Stop",2,758
4,184,0.2551,"Left",1,1,0,50,"Left","NoStop",2,758
4,185,0.2684,"Left",1,1,0,50,"Left","NoStop",2,758
4,186,0.7244,"Right",1,0,1,50,"NoGo","Stop",2,758
4,187,0.3218,"Right",1,1,0,50,"Right","NoStop",2,758
4,188,0.2975,"Left",1,1,0,50,"Left","NoStop",2,758
4,189,0.2772,"Left",1,1,0,50,"Left","NoStop",2,758
4,190,0.709,"Right",1,0,1,50,"NoGo","Stop",2,758
4,191,0.3223,"Right",1,1,0,50,"Right","NoStop",2,758
4,192,0.3336,"Right",1,0,1,50,"NoGo","Stop",2,758
4,193,0.4245,"Right",1,1,0,50,"Right","NoStop",2,758
4,194,0.2985,"Right",1,1,0,50,"Right","NoStop",2,758
4,195,0.347,"Left",1,1,0,50,"Left","NoStop",2,758
4,196,0.2748,"Left",1,1,0,50,"Left","NoStop",2,758
4,197,0.2805,"Left",1,1,0,50,"Left","NoStop",2,758
4,198,0.2978,"Right",1,1,0,50,"Right","NoStop",2,758
4,199,0.2616,"Left",1,0,1,50,"NoGo","Stop",2,758
4,200,0.2648,"Right",1,1,0,50,"Right","NoStop",2,758
4,201,0.7299,"Right",1,0,1,50,"NoGo","Stop",2,758
4,202,0.2544,"Left",1,1,0,50,"Left","NoStop",2,758
4,203,0.2667,"Right",1,1,0,50,"Right","NoStop",2,758
4,204,0.6301,"Left",1,0,1,50,"NoGo","Stop",2,758
4,205,0.2552,"Right",1,1,0,50,"Right","NoStop",2,758
4,206,0.358,"Right",1,1,0,50,"Right","NoStop",2,758
4,207,0.4815,"Left",1,1,0,50,"Left","NoStop",2,758
4,208,0.2304,"Right",1,1,0,50,"Right","NoStop",2,758
4,209,0.2633,"Right",1,1,0,50,"Right","NoStop",2,758
4,210,0.2129,"Right",1,1,0,50,"Right","NoStop",2,758
4,211,0.2691,"Right",1,0,1,50,"Left","NoStop",2,758
4,212,0.3637,"Right",1,1,0,50,"Right","NoStop",2,758
4,213,0.7274,"Right",1,0,1,50,"NoGo","Stop",2,758
4,214,0.3033,"Right",1,1,0,50,"Right","NoStop",2,758
4,215,0.3044,"Right",1,1,0,50,"Right","NoStop",2,758
4,216,0.2786,"Left",1,0,1,50,"NoGo","Stop",2,758
4,217,0.1908,"Left",1,1,0,50,"Left","NoStop",2,758
4,218,0.2401,"Left",1,1,0,50,"Left","NoStop",2,758
4,219,0.3977,"Left",1,1,0,50,"Left","NoStop",2,758
4,220,0.2657,"Left",1,1,0,50,"Left","NoStop",2,758
4,221,0.3875,"Right",1,1,0,50,"Right","NoStop",2,758
4,222,0.2871,"Right",1,0,1,50,"NoGo","Stop",2,758
4,223,0.7023,"Right",1,0,1,50,"NoGo","Stop",2,758
4,224,0.3117,"Left",1,1,0,50,"Left","NoStop",2,758
4,225,0.3324,"Left",1,1,0,50,"Left","NoStop",2,758
4,226,0.3345,"Right",1,1,0,50,"Right","NoStop",2,758
4,227,0.4032,"Left",1,1,0,50,"Left","NoStop",2,758
4,228,0.2782,"Right",1,1,0,50,"Right","NoStop",2,758
4,229,0.2552,"Left",1,1,0,50,"Left","NoStop",2,758
4,230,0.2403,"Right",1,1,0,50,"Right","NoStop",2,758
4,231,0.2535,"Left",1,0,1,50,"NoGo","Stop",2,758
4,232,0.2183,"Right",1,1,0,50,"Right","NoStop",2,758
4,233,0.3345,"Left",1,1,0,50,"Left","NoStop",2,758
4,234,0.3746,"Left",1,1,0,50,"Left","NoStop",2,758
4,235,0.2754,"Left",1,1,0,50,"Left","NoStop",2,758
4,236,0.315,"Right",1,1,0,50,"Right","NoStop",2,758
4,237,0.2913,"Left",1,1,0,50,"Left","NoStop",2,758
4,238,0.7207,"Right",1,0,1,50,"NoGo","Stop",2,758
4,239,0.2584,"Left",1,1,0,50,"Left","NoStop",2,758
4,240,0.2847,"Right",1,1,0,50,"Right","NoStop",2,758
16,1,0.5189,"Right",1,1,0,250,"Right","NoStop",18,277
16,2,0.0855,"Left",1,1,0,250,"Left","NoStop",18,277
16,3,0.1670999999,"Right",1,0,1,250,"NoGo","Stop",18,277
16,4,0.287,"Left",1,1,0,200,"Left","NoStop",18,277
16,5,0.1948,"Right",1,1,0,200,"Right","NoStop",18,277
16,6,0.2211,"Left",1,0,1,200,"NoGo","Stop",18,277
16,7,0.3271,"Left",1,1,0,150,"Left","NoStop",18,277
16,8,0.2584,"Left",1,1,0,150,"Left","NoStop",18,277
16,9,0.8118,"Right",1,0,1,150,"NoGo","Stop",18,277
16,10,0.6476,"Right",1,1,0,100,"Right","NoStop",18,277
16,11,0.3536999999,"Right",1,1,0,100,"Right","NoStop",18,277
16,12,1.3023,"Right",1,1,0,100,"Right","NoStop",18,277
16,13,0.2784000001,"Right",1,1,0,100,"Right","NoStop",18,277
16,14,1.401444,"NoGo",NA,1,0,100,"NoGo","Stop",18,277
16,15,1.351326,"NoGo",NA,1,0,150,"NoGo","Stop",18,277
16,16,0.2138,"Left",1,1,0,200,"Left","NoStop",18,277
16,17,1.301334,"NoGo",NA,1,0,200,"NoGo","Stop",18,277
16,18,0.1028,"Right",1,1,0,250,"Right","NoStop",18,277
16,19,0.3761,"Left",1,1,0,250,"Left","NoStop",18,277
16,20,0.4637,"Right",1,1,0,250,"Right","NoStop",18,277
16,21,1.251272,"NoGo",NA,1,0,250,"NoGo","Stop",18,277
16,22,0.2554000001,"Left",1,1,0,300,"Left","NoStop",18,277
16,23,1.201083,"NoGo",NA,1,0,300,"NoGo","Stop",18,277
16,24,0.1804,"Right",1,1,0,350,"Right","NoStop",18,277
16,25,0.541,"Right",1,1,0,350,"Right","NoStop",18,277
16,26,0.3057,"Right",1,1,0,350,"Right","NoStop",18,277
16,27,0.177,"Left",1,0,1,350,"NoGo","Stop",18,277
16,28,0.3408,"Right",1,1,0,300,"Right","NoStop",18,277
16,29,0.3873,"Right",1,1,0,300,"Right","NoStop",18,277
16,30,0.2596999999,"Right",1,1,0,300,"Right","NoStop",18,277
16,31,1.201228,"NoGo",NA,1,0,300,"NoGo","Stop",18,277
16,32,0.1295999999,"Right",1,1,0,350,"Right","NoStop",18,277
16,33,1.151172,"NoGo",NA,1,0,350,"NoGo","Stop",18,277
16,34,0.002299999952,"Right",1,1,0,400,"Right","NoStop",18,277
16,35,0.3918,"Left",1,1,0,400,"Left","NoStop",18,277
16,36,0.1806,"Right",1,0,1,400,"NoGo","Stop",18,277
16,37,0.5614,"Left",1,1,0,350,"Left","NoStop",18,277
16,38,0.3956,"Left",1,1,0,350,"Left","NoStop",18,277
16,39,0.2446,"Left",1,1,0,350,"Left","NoStop",18,277
16,40,0.2479,"Right",1,0,1,350,"NoGo","Stop",18,277
16,41,1.201315,"NoGo",NA,1,0,300,"NoGo","Stop",18,277
16,42,0.1141999999,"Right",1,0,1,350,"NoGo","Stop",18,277
16,43,0.5471999999,"Left",1,1,0,300,"Left","NoStop",18,277
16,44,0.5364,"Left",1,1,0,300,"Left","NoStop",18,277
16,45,0.4830999999,"Left",1,1,0,300,"Left","NoStop",18,277
16,46,0.472,"Left",1,1,0,300,"Left","NoStop",18,277
16,47,0.2295,"Right",1,0,1,300,"NoGo","Stop",18,277
16,48,1.251288,"NoGo",NA,1,0,250,"NoGo","Stop",18,277
16,49,0.3708000001,"Left",1,1,0,300,"Left","NoStop",18,277
16,50,0.3901,"Left",1,1,0,300,"Left","NoStop",18,277
16,51,0.4154,"Right",1,1,0,300,"Right","NoStop",18,277
16,52,0.9115,"Right",1,1,0,300,"Right","NoStop",18,277
16,53,0.4137,"Left",1,1,0,300,"Left","NoStop",18,277
16,54,0.3809,"Left",1,1,0,300,"Left","NoStop",18,277
16,55,0.5382,"Left",1,1,0,300,"Left","NoStop",18,277
16,56,0.0805,"Right",1,0,1,300,"NoGo","Stop",18,277
16,57,1.251237,"NoGo",NA,1,0,250,"NoGo","Stop",18,277
16,58,0.9164,"Right",1,1,0,300,"Right","NoStop",18,277
16,59,1.201324,"NoGo",NA,0,1,300,"Right","NoStop",18,277
16,60,0.1029,"Right",1,1,0,300,"Right","NoStop",18,277
16,61,0.8116,"Right",1,1,0,300,"Right","NoStop",18,277
16,62,0.5046999999,"Right",1,1,0,300,"Right","NoStop",18,277
16,63,0.2164,"Right",1,1,0,300,"Right","NoStop",18,277
16,64,0.1479,"Left",1,1,0,300,"Left","NoStop",18,277
16,65,0.1476999999,"Right",1,1,0,300,"Right","NoStop",18,277
16,66,0.1183,"Right",1,1,0,300,"Right","NoStop",18,277
16,67,0.0735,"Right",1,1,0,300,"Right","NoStop",18,277
16,68,0.06239999998,"Right",1,0,1,300,"NoGo","Stop",18,277
16,69,0.3608000001,"Left",1,1,0,250,"Left","NoStop",18,277
16,70,0.2274,"Left",1,1,0,250,"Left","NoStop",18,277
16,71,0.5274,"Left",1,1,0,250,"Left","NoStop",18,277
16,72,0.2359,"Left",1,1,0,250,"Left","NoStop",18,277
16,73,0.2299,"Right",1,0,1,250,"NoGo","Stop",18,277
16,74,0.696,"Right",1,1,0,200,"Right","NoStop",18,277
16,75,0.196,"Left",1,0,1,200,"NoGo","Stop",18,277
16,76,1.351394,"NoGo",NA,1,0,150,"NoGo","Stop",18,277
16,77,1.301401,"NoGo",NA,1,0,200,"NoGo","Stop",18,277
16,78,1.251289,"NoGo",NA,1,0,250,"NoGo","Stop",18,277
16,79,0.2465,"Left",1,1,0,300,"Left","NoStop",18,277
16,80,0.3265,"Left",1,1,0,300,"Left","NoStop",18,277
16,81,0.3794,"Right",1,1,0,300,"Right","NoStop",18,277
16,82,0.4166999999,"Left",1,1,0,300,"Left","NoStop",18,277
16,83,0.3137,"Right",1,1,0,300,"Right","NoStop",18,277
16,84,0.08730000007,"Left",1,1,0,300,"Left","NoStop",18,277
16,85,0.1129,"Right",1,1,0,300,"Right","NoStop",18,277
16,86,0.083,"Left",1,0,1,300,"NoGo","Stop",18,277
16,87,1.251238,"NoGo",NA,1,0,250,"NoGo","Stop",18,277
16,88,0.3485,"Right",1,1,0,300,"Right","NoStop",18,277
16,89,0.4982,"Right",1,1,0,300,"Right","NoStop",18,277
16,90,0.3366,"Right",1,1,0,300,"Right","NoStop",18,277
16,91,0.117,"Right",1,1,0,300,"Right","NoStop",18,277
16,92,0.3984,"Left",1,1,0,300,"Left","NoStop",18,277
16,93,1.201103,"NoGo",NA,1,0,300,"NoGo","Stop",18,277
16,94,0.1646999999,"Left",1,0,1,350,"NoGo","Stop",18,277
16,95,0.7276999999,"Left",1,1,0,300,"Left","NoStop",18,277
16,96,0.5012,"Left",1,1,0,300,"Left","NoStop",18,277
16,97,1.201123,"NoGo",NA,1,0,300,"NoGo","Stop",18,277
16,98,0.1286,"Right",1,1,0,350,"Right","NoStop",18,277
16,99,0.3537,"Right",1,1,0,350,"Right","NoStop",18,277
16,100,0.1325,"Right",1,1,0,350,"Right","NoStop",18,277
16,101,0.3285,"Right",1,1,0,350,"Right","NoStop",18,277
16,102,0.09510000002,"Left",1,1,0,350,"Left","NoStop",18,277
16,103,0.2462,"Left",1,0,1,350,"NoGo","Stop",18,277
16,104,0.3175,"Right",1,1,0,300,"Right","NoStop",18,277
16,105,0.5604,"Left",1,1,0,300,"Left","NoStop",18,277
16,106,0.5010999999,"Left",1,1,0,300,"Left","NoStop",18,277
16,107,0.6263000001,"Left",1,1,0,300,"Left","NoStop",18,277
16,108,0.4324,"Right",1,1,0,300,"Right","NoStop",18,277
16,109,1.201197,"NoGo",NA,1,0,300,"NoGo","Stop",18,277
16,110,0.2243,"Right",1,1,0,350,"Right","NoStop",18,277
16,111,0.1785,"Left",1,1,0,350,"Left","NoStop",18,277
16,112,0.3316999999,"Right",1,1,0,350,"Right","NoStop",18,277
16,113,0.2103000001,"Left",1,0,1,350,"NoGo","Stop",18,277
16,114,0.3971,"Right",1,1,0,300,"Right","NoStop",18,277
16,115,0.261,"Left",1,1,0,300,"Left","NoStop",18,277
16,116,0.6798,"Left",1,1,0,300,"Left","NoStop",18,277
16,117,0.4465,"Left",1,1,0,300,"Left","NoStop",18,277
16,118,0.2592,"Right",1,1,0,300,"Right","NoStop",18,277
16,119,0.235,"Right",1,1,0,300,"Right","NoStop",18,277
16,120,0.2655,"Left",1,1,0,300,"Left","NoStop",18,277
16,121,0.3313,"Right",1,1,0,300,"Right","NoStop",18,277
16,122,0.2651,"Right",1,1,0,300,"Right","NoStop",18,277
16,123,1.201105,"NoGo",NA,1,0,300,"NoGo","Stop",18,277
16,124,0.1231,"Left",1,1,0,350,"Left","NoStop",18,277
16,125,0.3811,"Right",1,1,0,350,"Right","NoStop",18,277
16,126,0.1814,"Left",1,1,0,350,"Left","NoStop",18,277
16,127,0.08079999995,"Right",1,1,0,350,"Right","NoStop",18,277
16,128,0.2905,"Left",1,1,0,350,"Left","NoStop",18,277
16,129,0.8242,"Left",1,1,0,350,"Left","NoStop",18,277
16,130,0.08570000005,"Left",1,1,0,350,"Left","NoStop",18,277
16,131,0.1143,"Left",1,0,1,350,"NoGo","Stop",18,277
16,132,0.1929000001,"Right",1,0,1,300,"NoGo","Stop",18,277
16,133,0.4196,"Right",1,1,0,250,"Right","NoStop",18,277
16,134,0.3158,"Left",1,1,0,250,"Left","NoStop",18,277
16,135,0.4285,"Right",1,1,0,250,"Right","NoStop",18,277
16,136,1.251316,"NoGo",NA,1,0,250,"NoGo","Stop",18,277
16,137,0.3531999999,"Left",1,1,0,300,"Left","NoStop",18,277
16,138,0.4143,"Right",1,1,0,300,"Right","NoStop",18,277
16,139,1.201204,"NoGo",NA,1,0,300,"NoGo","Stop",18,277
16,140,0.266,"Left",1,1,0,350,"Left","NoStop",18,277
16,141,1.151239,"NoGo",NA,1,0,350,"NoGo","Stop",18,277
16,142,1.100943,"NoGo",NA,1,0,400,"NoGo","Stop",18,277
16,143,0.1655,"Right",1,1,0,450,"Right","NoStop",18,277
16,144,0.4221999999,"Left",1,1,0,450,"Left","NoStop",18,277
16,145,0.3522,"Left",1,1,0,450,"Left","NoStop",18,277
16,146,0.3066999999,"Left",1,1,0,450,"Left","NoStop",18,277
16,147,0.3572,"Left",1,1,0,450,"Left","NoStop",18,277
16,148,0.2674,"Right",1,1,0,450,"Right","NoStop",18,277
16,149,0.1643000001,"Left",1,1,0,450,"Left","NoStop",18,277
16,150,0.0275,"Left",1,0,1,450,"NoGo","Stop",18,277
16,151,0.2302,"Left",1,1,0,400,"Left","NoStop",18,277
16,152,0.1898,"Left",1,1,0,400,"Left","NoStop",18,277
16,153,0.3156,"Left",1,1,0,400,"Left","NoStop",18,277
16,154,0.3057,"Right",1,1,0,400,"Right","NoStop",18,277
16,155,0.2475,"Left",1,1,0,400,"Left","NoStop",18,277
16,156,0.1999,"Left",1,0,1,400,"NoGo","Stop",18,277
16,157,0.4956,"Left",1,1,0,350,"Left","NoStop",18,277
16,158,0.061,"Right",1,1,0,350,"Right","NoStop",18,277
16,159,0.188,"Left",1,0,1,350,"NoGo","Stop",18,277
16,160,0.2129,"Left",1,1,0,300,"Left","NoStop",18,277
16,161,0.5103,"Left",1,1,0,300,"Left","NoStop",18,277
16,162,0.3621999999,"Right",1,1,0,300,"Right","NoStop",18,277
16,163,0.2565,"Right",1,1,0,300,"Right","NoStop",18,277
16,164,0.3845,"Left",1,1,0,300,"Left","NoStop",18,277
16,165,0.2401,"Left",1,1,0,300,"Left","NoStop",18,277
16,166,0.1105,"Left",1,1,0,300,"Left","NoStop",18,277
16,167,0.1289,"Left",1,1,0,300,"Left","NoStop",18,277
16,168,0.2316,"Right",1,1,0,300,"Right","NoStop",18,277
16,169,0.07879999995,"Left",1,0,1,300,"Right","NoStop",18,277
16,170,0.2002,"Right",1,1,0,300,"Right","NoStop",18,277
16,171,0.1786,"Right",1,1,0,300,"Right","NoStop",18,277
16,172,0.2483000001,"Right",1,1,0,300,"Right","NoStop",18,277
16,173,0.1486,"Left",1,1,0,300,"Left","NoStop",18,277
16,174,0.09839999998,"Right",1,1,0,300,"Right","NoStop",18,277
16,175,0.07089999998,"Right",1,1,0,300,"Right","NoStop",18,277
16,176,0.04389999998,"Left",1,1,0,300,"Left","NoStop",18,277
16,177,0.04910000002,"Right",1,0,1,300,"NoGo","Stop",18,277
16,178,0.5536,"Left",1,1,0,250,"Left","NoStop",18,277
16,179,0.2045,"Left",1,1,0,250,"Left","NoStop",18,277
16,180,0.1902,"Right",1,1,0,250,"Right","NoStop",18,277
16,181,0.6145999999,"Right",1,1,0,250,"Right","NoStop",18,277
16,182,1.25131,"NoGo",NA,1,0,250,"NoGo","Stop",18,277
16,183,0.4890999999,"Left",1,1,0,300,"Left","NoStop",18,277
16,184,0.3603000001,"Right",1,1,0,300,"Right","NoStop",18,277
16,185,0.3059,"Left",1,1,0,300,"Left","NoStop",18,277
16,186,1.201103,"NoGo",NA,1,0,300,"NoGo","Stop",18,277
16,187,0.2147,"Left",1,0,1,350,"NoGo","Stop",18,277
16,188,0.1821999999,"Right",1,1,0,300,"Right","NoStop",18,277
16,189,1.201276,"NoGo",NA,1,0,300,"NoGo","Stop",18,277
16,190,0.2176999999,"Right",1,1,0,350,"Right","NoStop",18,277
16,191,1.15112,"NoGo",NA,1,0,350,"NoGo","Stop",18,277
16,192,0.3064,"Right",1,1,0,400,"Right","NoStop",18,277
16,193,0.3719,"Right",1,1,0,400,"Right","NoStop",18,277
16,194,0.2991,"Right",1,0,1,400,"NoGo","Stop",18,277
16,195,0.1824,"Right",1,1,0,350,"Right","NoStop",18,277
16,196,0.01919999993,"Right",1,1,0,350,"Right","NoStop",18,277
16,197,0.3215,"Right",1,0,1,350,"NoGo","Stop",18,277
16,198,0.06810000002,"Right",1,1,0,300,"Right","NoStop",18,277
16,199,0.03680000007,"Right",1,1,0,300,"Right","NoStop",18,277
16,200,0.01739999998,"Right",1,1,0,300,"Right","NoStop",18,277
16,201,0.2129,"Left",1,1,0,300,"Left","NoStop",18,277
16,202,0.07739999998,"Right",1,1,0,300,"Right","NoStop",18,277
16,203,0.1521,"Left",1,1,0,300,"Left","NoStop",18,277
16,204,0.1742,"Left",1,1,0,300,"Left","NoStop",18,277
16,205,0.02180000007,"Right",1,1,0,300,"Right","NoStop",18,277
16,206,0.2298,"Left",1,1,0,300,"Left","NoStop",18,277
16,207,0.2286,"Left",1,1,0,300,"Left","NoStop",18,277
16,208,0.1322,"Left",1,1,0,300,"Left","NoStop",18,277
16,209,0.1681,"Left",1,1,0,300,"Left","NoStop",18,277
16,210,0.09970000005,"Left",1,1,0,300,"Left","NoStop",18,277
16,211,0.1094,"Right",1,1,0,300,"Right","NoStop",18,277
16,212,0.1259,"Right",1,1,0,300,"Right","NoStop",18,277
16,213,0.002899999976,"Left",1,1,0,300,"Left","NoStop",18,277
16,214,0.1341,"Left",1,1,0,300,"Left","NoStop",18,277
16,215,0.0615999999,"Left",1,1,0,300,"Left","NoStop",18,277
16,216,0.1553,"Right",1,1,0,300,"Right","NoStop",18,277
16,217,0.101,"Right",1,0,1,300,"NoGo","Stop",18,277
16,218,0.1829,"Left",1,0,1,250,"NoGo","Stop",18,277
16,219,0.4593,"Right",1,1,0,200,"Right","NoStop",18,277
16,220,0.1809,"Right",1,1,0,200,"Right","NoStop",18,277
16,221,0.2524,"Right",1,1,0,200,"Right","NoStop",18,277
16,222,0.2188000001,"Left",1,1,0,200,"Left","NoStop",18,277
16,223,0.1804,"Left",1,1,0,200,"Left","NoStop",18,277
16,224,0.1515,"Left",1,0,1,200,"NoGo","Stop",18,277
16,225,1.351241,"NoGo",NA,1,0,150,"NoGo","Stop",18,277
16,226,0.1789,"Right",1,1,0,200,"Right","NoStop",18,277
16,227,0.3751,"Right",1,0,1,200,"NoGo","Stop",18,277
16,228,1.35135,"NoGo",NA,1,0,150,"NoGo","Stop",18,277
16,229,0.3785,"Left",1,1,0,200,"Left","NoStop",18,277
16,230,0.4295,"Left",1,1,0,200,"Left","NoStop",18,277
16,231,0.3410999999,"Right",1,1,0,200,"Right","NoStop",18,277
16,232,0.4356,"Left",1,1,0,200,"Left","NoStop",18,277
16,233,0.3619,"Left",1,1,0,200,"Left","NoStop",18,277
16,234,0.2959,"Left",1,1,0,200,"Left","NoStop",18,277
16,235,0.2526,"Left",1,1,0,200,"Left","NoStop",18,277
16,236,0.2435,"Right",1,1,0,200,"Right","NoStop",18,277
16,237,1.301288,"NoGo",NA,1,0,200,"NoGo","Stop",18,277
16,238,0.3458,"Right",1,1,0,250,"Right","NoStop",18,277
16,239,1.251244,"NoGo",NA,1,0,250,"NoGo","Stop",18,277
16,240,1.2012,"NoGo",NA,1,0,300,"NoGo","Stop",18,277
5,1,0.07079999995,"Right",1,1,0,250,"Right","NoStop",12,890
5,2,0.03260000002,"Left",1,1,0,250,"Left","NoStop",12,890
5,3,0.04120000005,"Left",1,1,0,250,"Left","NoStop",12,890
5,4,0.1731999999,"Left",1,1,0,250,"Left","NoStop",12,890
5,5,0.1341,"Right",1,0,1,250,"NoGo","Stop",12,890
5,6,0.09220000005,"Left",1,1,0,200,"Left","NoStop",12,890
5,7,0.1133,"Right",1,1,0,200,"Right","NoStop",12,890
5,8,0.1524000001,"Left",1,0,1,200,"NoGo","Stop",12,890
5,9,0.6793000001,"Left",1,1,0,150,"Left","NoStop",12,890
5,10,0.27,"Left",1,1,0,150,"Left","NoStop",12,890
5,11,0.2414,"Right",1,1,0,150,"Right","NoStop",12,890
5,12,0.2338000001,"Right",1,1,0,150,"Right","NoStop",12,890
5,13,0.2026999999,"Right",1,1,0,150,"Right","NoStop",12,890
5,14,0.2139000001,"Left",1,1,0,150,"Left","NoStop",12,890
5,15,0.2171,"Left",1,1,0,150,"Left","NoStop",12,890
5,16,0.9846999999,"Right",1,0,1,150,"NoGo","Stop",12,890
5,17,0.1734000001,"Left",1,0,1,100,"Right","NoStop",12,890
5,18,0.2643000001,"Right",1,1,0,100,"Right","NoStop",12,890
5,19,0.3508,"Left",1,1,0,100,"Left","NoStop",12,890
5,20,0.1886999999,"Right",1,1,0,100,"Right","NoStop",12,890
5,21,0.142,"Left",1,0,1,100,"Right","NoStop",12,890
5,22,0.2442,"Right",1,1,0,100,"Right","NoStop",12,890
5,23,0.795,"Left",1,0,1,100,"NoGo","Stop",12,890
5,24,0.7923000001,"Left",1,0,1,50,"NoGo","Stop",12,890
5,25,0.5268,"Right",1,1,0,50,"Right","NoStop",12,890
5,26,0.2503,"Right",1,1,0,50,"Right","NoStop",12,890
5,27,0.5498000001,"Left",1,1,0,50,"Left","NoStop",12,890
5,28,0.2981999999,"Left",1,1,0,50,"Left","NoStop",12,890
5,29,0.318,"Right",1,1,0,50,"Right","NoStop",12,890
5,30,0.7754,"Right",1,0,1,50,"NoGo","Stop",12,890
5,31,0.2205,"Right",1,1,0,50,"Right","NoStop",12,890
5,32,0.7352,"Right",1,0,1,50,"NoGo","Stop",12,890
5,33,0.311,"Right",1,1,0,50,"Right","NoStop",12,890
5,34,0.5906,"Left",1,1,0,50,"Left","NoStop",12,890
5,35,0.254,"Right",1,1,0,50,"Right","NoStop",12,890
5,36,0.766,"Right",1,0,1,50,"NoGo","Stop",12,890
5,37,0.2839,"Left",1,1,0,50,"Left","NoStop",12,890
5,38,0.7727,"Right",1,0,1,50,"NoGo","Stop",12,890
5,39,0.6525,"Left",1,0,1,50,"NoGo","Stop",12,890
5,40,0.3768,"Left",1,1,0,50,"Left","NoStop",12,890
5,41,0.3228,"Left",1,1,0,50,"Left","NoStop",12,890
5,42,0.346,"Left",1,1,0,50,"Left","NoStop",12,890
5,43,0.4007,"Right",1,1,0,50,"Right","NoStop",12,890
5,44,0.2803000001,"Left",1,1,0,50,"Left","NoStop",12,890
5,45,0.3695,"Left",1,1,0,50,"Left","NoStop",12,890
5,46,0.3329,"Left",1,1,0,50,"Left","NoStop",12,890
5,47,0.2291999999,"Left",1,0,1,50,"NoGo","Stop",12,890
5,48,0.2882,"Right",1,1,0,50,"Right","NoStop",12,890
5,49,0.377,"Right",1,1,0,50,"Right","NoStop",12,890
5,50,0.3055,"Right",1,1,0,50,"Right","NoStop",12,890
5,51,0.348,"Left",1,1,0,50,"Left","NoStop",12,890
5,52,0.3432,"Left",1,1,0,50,"Left","NoStop",12,890
5,53,0.3093000001,"Right",1,1,0,50,"Right","NoStop",12,890
5,54,0.2591,"Left",1,1,0,50,"Left","NoStop",12,890
5,55,0.2797,"Right",1,1,0,50,"Right","NoStop",12,890
5,56,0.3441,"Left",1,0,1,50,"Right","NoStop",12,890
5,57,0.3928,"Left",1,1,0,50,"Left","NoStop",12,890
5,58,0.8149000001,"Left",1,0,1,50,"NoGo","Stop",12,890
5,59,0.3526,"Right",1,1,0,50,"Right","NoStop",12,890
5,60,0.3115999999,"Left",1,1,0,50,"Left","NoStop",12,890
5,61,0.5824,"Left",1,1,0,50,"Left","NoStop",12,890
5,62,0.3176,"Left",1,1,0,50,"Left","NoStop",12,890
5,63,0.2841,"Right",1,1,0,50,"Right","NoStop",12,890
5,64,0.3166,"Right",1,1,0,50,"Right","NoStop",12,890
5,65,0.333,"Left",1,1,0,50,"Left","NoStop",12,890
5,66,0.8144,"Left",1,0,1,50,"NoGo","Stop",12,890
5,67,0.2865999999,"Right",1,1,0,50,"Right","NoStop",12,890
5,68,0.3384000001,"Left",1,1,0,50,"Left","NoStop",12,890
5,69,0.7606,"Left",1,0,1,50,"NoGo","Stop",12,890
5,70,0.3423000001,"Right",1,1,0,50,"Right","NoStop",12,890
5,71,0.7449000001,"Right",1,0,1,50,"NoGo","Stop",12,890
5,72,0.3205,"Left",1,1,0,50,"Left","NoStop",12,890
5,73,0.8050999999,"Left",1,0,1,50,"NoGo","Stop",12,890
5,74,0.803,"Left",1,0,1,50,"NoGo","Stop",12,890
5,75,0.4798,"Right",1,1,0,50,"Right","NoStop",12,890
5,76,0.8386,"Left",1,0,1,50,"NoGo","Stop",12,890
5,77,0.338,"Left",1,1,0,50,"Left","NoStop",12,890
5,78,0.35,"Right",1,1,0,50,"Right","NoStop",12,890
5,79,0.3108000001,"Left",1,1,0,50,"Left","NoStop",12,890
5,80,0.2859,"Left",1,1,0,50,"Left","NoStop",12,890
5,81,0.3522,"Right",1,1,0,50,"Right","NoStop",12,890
5,82,0.4669,"Right",1,1,0,50,"Right","NoStop",12,890
5,83,0.3903,"Left",1,1,0,50,"Left","NoStop",12,890
5,84,0.7801999999,"Right",1,0,1,50,"NoGo","Stop",12,890
5,85,0.9595999999,"Left",1,0,1,50,"NoGo","Stop",12,890
5,86,0.3866999999,"Right",1,1,0,50,"Right","NoStop",12,890
5,87,0.7718,"Left",1,0,1,50,"NoGo","Stop",12,890
5,88,0.4331999999,"Left",1,1,0,50,"Left","NoStop",12,890
5,89,0.2644,"Right",1,1,0,50,"Right","NoStop",12,890
5,90,0.3488,"Right",1,1,0,50,"Right","NoStop",12,890
5,91,0.4043,"Left",1,1,0,50,"Left","NoStop",12,890
5,92,0.3059,"Left",1,1,0,50,"Left","NoStop",12,890
5,93,0.3142,"Left",1,1,0,50,"Left","NoStop",12,890
5,94,0.8198000001,"Right",1,0,1,50,"NoGo","Stop",12,890
5,95,0.3412,"Left",1,1,0,50,"Left","NoStop",12,890
5,96,0.4085,"Left",1,1,0,50,"Left","NoStop",12,890
5,97,0.3137,"Right",1,1,0,50,"Right","NoStop",12,890
5,98,0.7835,"Left",1,0,1,50,"NoGo","Stop",12,890
5,99,0.7699,"Right",1,0,1,50,"NoGo","Stop",12,890
5,100,0.789,"Right",1,0,1,50,"NoGo","Stop",12,890
5,101,0.2547,"Right",1,1,0,50,"Right","NoStop",12,890
5,102,0.4433000001,"Left",1,1,0,50,"Left","NoStop",12,890
5,103,0.8048,"Left",1,0,1,50,"NoGo","Stop",12,890
5,104,0.3444,"Left",1,1,0,50,"Left","NoStop",12,890
5,105,0.3405,"Right",1,1,0,50,"Right","NoStop",12,890
5,106,0.7859000001,"Right",1,0,1,50,"NoGo","Stop",12,890
5,107,0.734,"Right",1,0,1,50,"NoGo","Stop",12,890
5,108,0.3299,"Right",1,1,0,50,"Right","NoStop",12,890
5,109,0.4271999999,"Left",1,1,0,50,"Left","NoStop",12,890
5,110,0.7594000001,"Right",1,0,1,50,"NoGo","Stop",12,890
5,111,0.3482,"Right",1,1,0,50,"Right","NoStop",12,890
5,112,0.3315,"Left",1,1,0,50,"Left","NoStop",12,890
5,113,0.7888000001,"Left",1,0,1,50,"NoGo","Stop",12,890
5,114,0.6877,"Right",1,1,0,50,"Right","NoStop",12,890
5,115,0.4394,"Right",1,1,0,50,"Right","NoStop",12,890
5,116,0.3408000001,"Right",1,0,1,50,"Left","NoStop",12,890
5,117,0.3451999999,"Right",1,1,0,50,"Right","NoStop",12,890
5,118,0.3458,"Left",1,1,0,50,"Left","NoStop",12,890
5,119,0.4015,"Right",1,1,0,50,"Right","NoStop",12,890
5,120,0.3716999999,"Right",1,1,0,50,"Right","NoStop",12,890
5,121,0.5535,"Right",1,1,0,50,"Right","NoStop",12,890
5,122,0.3426,"Right",1,0,1,50,"NoGo","Stop",12,890
5,123,0.7492,"Right",1,0,1,50,"NoGo","Stop",12,890
5,124,0.3741,"Left",1,1,0,50,"Left","NoStop",12,890
5,125,0.3071,"Right",1,1,0,50,"Right","NoStop",12,890
5,126,0.7314,"Right",1,0,1,50,"NoGo","Stop",12,890
5,127,0.2894,"Right",1,1,0,50,"Right","NoStop",12,890
5,128,0.2848000001,"Right",1,1,0,50,"Right","NoStop",12,890
5,129,0.3705,"Left",1,1,0,50,"Left","NoStop",12,890
5,130,0.7464000001,"Right",1,0,1,50,"NoGo","Stop",12,890
5,131,0.3366,"Left",1,1,0,50,"Left","NoStop",12,890
5,132,0.4182,"Left",1,1,0,50,"Left","NoStop",12,890
5,133,0.3493,"Left",1,1,0,50,"Left","NoStop",12,890
5,134,0.316,"Left",1,1,0,50,"Left","NoStop",12,890
5,135,0.3466,"Right",1,1,0,50,"Right","NoStop",12,890
5,136,0.4792,"Left",1,0,1,50,"Right","NoStop",12,890
5,137,0.8981999999,"Right",1,1,0,50,"Right","NoStop",12,890
5,138,0.2921,"Right",1,1,0,50,"Right","NoStop",12,890
5,139,0.7801,"Right",1,0,1,50,"NoGo","Stop",12,890
5,140,0.2763000001,"Right",1,1,0,50,"Right","NoStop",12,890
5,141,0.311,"Right",1,1,0,50,"Right","NoStop",12,890
5,142,0.2268000001,"Right",1,0,1,50,"Left","NoStop",12,890
5,143,0.3162,"Right",1,1,0,50,"Right","NoStop",12,890
5,144,0.3094000001,"Left",1,1,0,50,"Left","NoStop",12,890
5,145,0.7167,"Right",1,0,1,50,"NoGo","Stop",12,890
5,146,0.7765999999,"Left",1,0,1,50,"NoGo","Stop",12,890
5,147,0.337,"Right",1,1,0,50,"Right","NoStop",12,890
5,148,0.8024,"Left",1,0,1,50,"NoGo","Stop",12,890
5,149,0.3988,"Left",1,1,0,50,"Left","NoStop",12,890
5,150,0.7605,"Left",1,0,1,50,"NoGo","Stop",12,890
5,151,0.4003,"Left",1,1,0,50,"Left","NoStop",12,890
5,152,0.4071,"Right",1,1,0,50,"Right","NoStop",12,890
5,153,0.3994,"Left",1,1,0,50,"Left","NoStop",12,890
5,154,0.254,"Right",1,1,0,50,"Right","NoStop",12,890
5,155,0.3685,"Left",1,1,0,50,"Left","NoStop",12,890
5,156,0.3531,"Right",1,1,0,50,"Right","NoStop",12,890
5,157,0.747,"Right",1,0,1,50,"NoGo","Stop",12,890
5,158,0.3695,"Left",1,1,0,50,"Left","NoStop",12,890
5,159,0.3218000001,"Left",1,1,0,50,"Left","NoStop",12,890
5,160,0.2998,"Left",1,1,0,50,"Left","NoStop",12,890
5,161,0.773,"Left",1,0,1,50,"NoGo","Stop",12,890
5,162,0.2667,"Left",1,1,0,50,"Left","NoStop",12,890
5,163,0.2694000001,"Left",1,1,0,50,"Left","NoStop",12,890
5,164,0.3161,"Left",1,1,0,50,"Left","NoStop",12,890
5,165,0.3145,"Left",1,1,0,50,"Left","NoStop",12,890
5,166,0.5224000001,"Right",1,1,0,50,"Right","NoStop",12,890
5,167,0.7440999999,"Left",1,0,1,50,"NoGo","Stop",12,890
5,168,0.7278,"Left",1,0,1,50,"NoGo","Stop",12,890
5,169,0.6301,"Right",1,0,1,50,"NoGo","Stop",12,890
5,170,0.3016,"Left",1,1,0,50,"Left","NoStop",12,890
5,171,0.4616,"Right",1,1,0,50,"Right","NoStop",12,890
5,172,0.3021,"Left",1,1,0,50,"Left","NoStop",12,890
5,173,0.4685,"Left",1,1,0,50,"Left","NoStop",12,890
5,174,0.5263000001,"Right",1,1,0,50,"Right","NoStop",12,890
5,175,0.5265,"Right",1,1,0,50,"Right","NoStop",12,890
5,176,0.4554,"Left",1,1,0,50,"Left","NoStop",12,890
5,177,0.3181,"Left",1,1,0,50,"Left","NoStop",12,890
5,178,0.4153,"Left",1,0,1,50,"Right","NoStop",12,890
5,179,0.7435999999,"Right",1,0,1,50,"NoGo","Stop",12,890
5,180,0.3751,"Right",1,1,0,50,"Right","NoStop",12,890
5,181,0.4015,"Right",1,1,0,50,"Right","NoStop",12,890
5,182,0.3312,"Left",1,0,1,50,"NoGo","Stop",12,890
5,183,0.3394,"Left",1,1,0,50,"Left","NoStop",12,890
5,184,0.3009,"Left",1,1,0,50,"Left","NoStop",12,890
5,185,0.3183000001,"Right",1,1,0,50,"Right","NoStop",12,890
5,186,0.3553,"Right",1,1,0,50,"Right","NoStop",12,890
5,187,0.2935999999,"Left",1,1,0,50,"Left","NoStop",12,890
5,188,0.3123,"Left",1,1,0,50,"Left","NoStop",12,890
5,189,0.3103,"Left",1,1,0,50,"Left","NoStop",12,890
5,190,0.3158,"Right",1,1,0,50,"Right","NoStop",12,890
5,191,0.7576999999,"Right",1,0,1,50,"NoGo","Stop",12,890
5,192,0.7084,"Right",1,0,1,50,"NoGo","Stop",12,890
5,193,0.3631,"Left",1,1,0,50,"Left","NoStop",12,890
5,194,0.7633,"Left",1,0,1,50,"NoGo","Stop",12,890
5,195,0.4388,"Left",1,1,0,50,"Left","NoStop",12,890
5,196,0.3214,"Right",1,1,0,50,"Right","NoStop",12,890
5,197,0.7752,"Left",1,0,1,50,"NoGo","Stop",12,890
5,198,0.3667,"Left",1,1,0,50,"Left","NoStop",12,890
5,199,0.3399,"Right",1,1,0,50,"Right","NoStop",12,890
5,200,0.2896,"Left",1,1,0,50,"Left","NoStop",12,890
5,201,0.2961,"Left",1,1,0,50,"Left","NoStop",12,890
5,202,0.2285,"Left",1,1,0,50,"Left","NoStop",12,890
5,203,0.4008,"Right",1,1,0,50,"Right","NoStop",12,890
5,204,0.6858,"Right",1,0,1,50,"NoGo","Stop",12,890
5,205,0.6841,"Left",1,0,1,50,"NoGo","Stop",12,890
5,206,0.7433,"Left",1,0,1,50,"NoGo","Stop",12,890
5,207,0.3418000001,"Left",1,1,0,50,"Left","NoStop",12,890
5,208,0.7555,"Right",1,0,1,50,"NoGo","Stop",12,890
5,209,0.3473000001,"Right",1,1,0,50,"Right","NoStop",12,890
5,210,0.3946999999,"Left",1,1,0,50,"Left","NoStop",12,890
5,211,0.7042,"Right",1,0,1,50,"NoGo","Stop",12,890
5,212,0.3428,"Right",1,1,0,50,"Right","NoStop",12,890
5,213,0.3121,"Right",1,1,0,50,"Right","NoStop",12,890
5,214,0.3259000001,"Right",1,1,0,50,"Right","NoStop",12,890
5,215,0.4516,"Left",1,1,0,50,"Left","NoStop",12,890
5,216,0.3751,"Left",1,1,0,50,"Left","NoStop",12,890
5,217,0.3579,"Right",1,1,0,50,"Right","NoStop",12,890
5,218,0.3788,"Left",1,1,0,50,"Left","NoStop",12,890
5,219,0.3284000001,"Right",1,1,0,50,"Right","NoStop",12,890
5,220,0.3804,"Right",1,1,0,50,"Right","NoStop",12,890
5,221,0.7458,"Right",1,0,1,50,"NoGo","Stop",12,890
5,222,0.3173,"Right",1,1,0,50,"Right","NoStop",12,890
5,223,0.7419,"Right",1,0,1,50,"NoGo","Stop",12,890
5,224,0.3168,"Right",1,1,0,50,"Right","NoStop",12,890
5,225,0.2349000001,"Right",1,1,0,50,"Right","NoStop",12,890
5,226,0.4063,"Left",1,1,0,50,"Left","NoStop",12,890
5,227,0.3131999999,"Right",1,1,0,50,"Right","NoStop",12,890
5,228,0.6370999999,"Left",1,0,1,50,"NoGo","Stop",12,890
5,229,0.6776999999,"Left",1,0,1,50,"NoGo","Stop",12,890
5,230,0.3188000001,"Right",1,1,0,50,"Right","NoStop",12,890
5,231,0.3918,"Left",1,1,0,50,"Left","NoStop",12,890
5,232,0.3875,"Left",1,1,0,50,"Left","NoStop",12,890
5,233,0.2584000001,"Right",1,1,0,50,"Right","NoStop",12,890
5,234,0.6913,"Left",1,0,1,50,"NoGo","Stop",12,890
5,235,0.42,"Left",1,1,0,50,"Left","NoStop",12,890
5,236,0.3694,"Right",1,1,0,50,"Right","NoStop",12,890
5,237,0.4581,"Right",1,1,0,50,"Right","NoStop",12,890
5,238,0.3285,"Right",1,1,0,50,"Right","NoStop",12,890
5,239,0.3486,"Left",1,1,0,50,"Left","NoStop",12,890
5,240,0.3679,"Right",1,1,0,50,"Right","NoStop",12,890
9,1,0.109,"Right",1,1,0,250,"Right","NoStop",6,265
9,2,0.1327,"Right",1,1,0,250,"Right","NoStop",6,265
9,3,0.1472,"Right",1,1,0,250,"Right","NoStop",6,265
9,4,0.2159,"Left",1,0,1,250,"NoGo","Stop",6,265
9,5,0.1967,"Left",1,1,0,200,"Left","NoStop",6,265
9,6,0.3029,"Right",1,1,0,200,"Right","NoStop",6,265
9,7,0.2215,"Right",1,0,1,200,"NoGo","Stop",6,265
9,8,0.3172,"Left",1,1,0,150,"Left","NoStop",6,265
9,9,0.4998,"Left",1,1,0,150,"Left","NoStop",6,265
9,10,1.349712,"NoGo",NA,1,0,150,"NoGo","Stop",6,265
9,11,0.2294,"Right",1,0,1,200,"NoGo","Stop",6,265
9,12,0.2444,"Left",1,1,0,150,"Left","NoStop",6,265
9,13,0.3879,"Right",1,1,0,150,"Right","NoStop",6,265
9,14,0.2181,"Right",1,1,0,150,"Right","NoStop",6,265
9,15,0.2024,"Right",1,1,0,150,"Right","NoStop",6,265
9,16,0.2326,"Right",1,1,0,150,"Right","NoStop",6,265
9,17,0.2122,"Right",1,0,1,150,"NoGo","Stop",6,265
9,18,0.4962,"Right",1,1,0,100,"Right","NoStop",6,265
9,19,0.2992,"Left",1,1,0,100,"Left","NoStop",6,265
9,20,0.3246,"Left",1,1,0,100,"Left","NoStop",6,265
9,21,0.3905,"Right",1,1,0,100,"Right","NoStop",6,265
9,22,0.3139,"Left",1,1,0,100,"Left","NoStop",6,265
9,23,0.27,"Right",1,1,0,100,"Right","NoStop",6,265
9,24,1.399814,"NoGo",NA,1,0,100,"NoGo","Stop",6,265
9,25,0.2102,"Right",1,0,1,150,"NoGo","Stop",6,265
9,26,0.5539,"Right",1,1,0,100,"Right","NoStop",6,265
9,27,0.3156,"Left",1,1,0,100,"Left","NoStop",6,265
9,28,0.3144,"Left",1,1,0,100,"Left","NoStop",6,265
9,29,0.5817,"Left",1,1,0,100,"Left","NoStop",6,265
9,30,0.3097,"Left",1,1,0,100,"Left","NoStop",6,265
9,31,0.3931,"Left",1,1,0,100,"Left","NoStop",6,265
9,32,0.3454,"Right",1,1,0,100,"Right","NoStop",6,265
9,33,0.3195,"Left",1,1,0,100,"Left","NoStop",6,265
9,34,0.2972,"Right",1,1,0,100,"Right","NoStop",6,265
9,35,1.399739,"NoGo",NA,1,0,100,"NoGo","Stop",6,265
9,36,0.2448,"Left",1,1,0,150,"Left","NoStop",6,265
9,37,0.2285,"Left",1,0,1,150,"NoGo","Stop",6,265
9,38,0.3153,"Right",1,1,0,100,"Right","NoStop",6,265
9,39,0.2762,"Left",1,1,0,100,"Left","NoStop",6,265
9,40,0.2628,"Right",1,1,0,100,"Right","NoStop",6,265
9,41,1.399509,"NoGo",NA,1,0,100,"NoGo","Stop",6,265
9,42,0.3087,"Right",1,1,0,150,"Right","NoStop",6,265
9,43,0.1823,"Left",1,1,0,150,"Left","NoStop",6,265
9,44,0.2424,"Right",1,1,0,150,"Right","NoStop",6,265
9,45,0.256,"Right",1,1,0,150,"Right","NoStop",6,265
9,46,0.3849,"Left",1,1,0,150,"Left","NoStop",6,265
9,47,0.3137,"Right",1,1,0,150,"Right","NoStop",6,265
9,48,0.3243,"Left",1,1,0,150,"Left","NoStop",6,265
9,49,1.349493,"NoGo",NA,1,0,150,"NoGo","Stop",6,265
9,50,0.1658,"Left",1,0,1,200,"NoGo","Stop",6,265
9,51,0.3604,"Right",1,0,1,150,"NoGo","Stop",6,265
9,52,0.5031,"Right",1,1,0,100,"Right","NoStop",6,265
9,53,0.3034,"Left",1,1,0,100,"Left","NoStop",6,265
9,54,0.3321,"Right",1,1,0,100,"Right","NoStop",6,265
9,55,1.399743,"NoGo",NA,1,0,100,"NoGo","Stop",6,265
9,56,0.2303,"Left",1,1,0,150,"Left","NoStop",6,265
9,57,0.3077,"Right",1,1,0,150,"Right","NoStop",6,265
9,58,0.2327,"Right",1,1,0,150,"Right","NoStop",6,265
9,59,0.1819,"Right",1,1,0,150,"Right","NoStop",6,265
9,60,0.1898,"Right",1,1,0,150,"Right","NoStop",6,265
9,61,0.397,"Right",1,1,0,150,"Right","NoStop",6,265
9,62,0.1951,"Left",1,1,0,150,"Left","NoStop",6,265
9,63,0.1712,"Left",1,1,0,150,"Left","NoStop",6,265
9,64,0.134,"Left",1,1,0,150,"Left","NoStop",6,265
9,65,0.2096,"Left",1,1,0,150,"Left","NoStop",6,265
9,66,0.3975,"Left",1,0,1,150,"NoGo","Stop",6,265
9,67,0.4044,"Right",1,1,0,100,"Right","NoStop",6,265
9,68,1.399759,"NoGo",NA,1,0,100,"NoGo","Stop",6,265
9,69,0.195,"Right",1,0,1,150,"NoGo","Stop",6,265
9,70,1.399358,"NoGo",NA,1,0,100,"NoGo","Stop",6,265
9,71,0.2652,"Left",1,0,1,150,"NoGo","Stop",6,265
9,72,1.399684,"NoGo",NA,1,0,100,"NoGo","Stop",6,265
9,73,0.2829,"Right",1,1,0,150,"Right","NoStop",6,265
9,74,1.349581,"NoGo",NA,1,0,150,"NoGo","Stop",6,265
9,75,0.1987,"Left",1,1,0,200,"Left","NoStop",6,265
9,76,0.2137,"Right",1,1,0,200,"Right","NoStop",6,265
9,77,0.3611,"Right",1,1,0,200,"Right","NoStop",6,265
9,78,0.306,"Left",1,1,0,200,"Left","NoStop",6,265
9,79,0.1539,"Right",1,1,0,200,"Right","NoStop",6,265
9,80,0.1452,"Right",1,1,0,200,"Right","NoStop",6,265
9,81,0.1704,"Left",1,0,1,200,"NoGo","Stop",6,265
9,82,0.4269,"Left",1,1,0,150,"Left","NoStop",6,265
9,83,0.2639,"Right",1,0,1,150,"NoGo","Stop",6,265
9,84,0.3985,"Right",1,1,0,100,"Right","NoStop",6,265
9,85,0.2424,"Right",1,1,0,100,"Right","NoStop",6,265
9,86,0.2989,"Left",1,1,0,100,"Left","NoStop",6,265
9,87,0.2642,"Left",1,1,0,100,"Left","NoStop",6,265
9,88,0.3713,"Left",1,1,0,100,"Left","NoStop",6,265
9,89,0.2934,"Left",1,1,0,100,"Left","NoStop",6,265
9,90,0.2104,"Left",1,1,0,100,"Left","NoStop",6,265
9,91,0.3796,"Right",1,0,1,100,"NoGo","Stop",6,265
9,92,0.3506,"Left",1,1,0,50,"Left","NoStop",6,265
9,93,0.3382,"Left",1,1,0,50,"Left","NoStop",6,265
9,94,0.3324,"Right",1,1,0,50,"Right","NoStop",6,265
9,95,0.3053,"Left",1,1,0,50,"Left","NoStop",6,265
9,96,0.3708,"Right",1,1,0,50,"Right","NoStop",6,265
9,97,0.341,"Left",1,1,0,50,"Left","NoStop",6,265
9,98,0.3649,"Left",1,1,0,50,"Left","NoStop",6,265
9,99,0.3542,"Left",1,1,0,50,"Left","NoStop",6,265
9,100,0.293,"Left",1,1,0,50,"Left","NoStop",6,265
9,101,0.4072,"Left",1,1,0,50,"Left","NoStop",6,265
9,102,1.44962,"NoGo",NA,1,0,50,"NoGo","Stop",6,265
9,103,0.3579,"Right",1,1,0,100,"Right","NoStop",6,265
9,104,0.2849,"Left",1,1,0,100,"Left","NoStop",6,265
9,105,0.2619,"Right",1,1,0,100,"Right","NoStop",6,265
9,106,0.202,"Left",1,1,0,100,"Left","NoStop",6,265
9,107,0.2525,"Left",1,0,1,100,"Right","NoStop",6,265
9,108,1.399808,"NoGo",NA,1,0,100,"NoGo","Stop",6,265
9,109,1.349971,"NoGo",NA,1,0,150,"NoGo","Stop",6,265
9,110,1.299722,"NoGo",NA,1,0,200,"NoGo","Stop",6,265
9,111,0.1735,"Left",1,1,0,250,"Left","NoStop",6,265
9,112,0.1041,"Left",1,1,0,250,"Left","NoStop",6,265
9,113,0.06519999999,"Left",1,0,1,250,"NoGo","Stop",6,265
9,114,0.1725,"Left",1,0,1,200,"NoGo","Stop",6,265
9,115,0.5045,"Left",1,1,0,150,"Left","NoStop",6,265
9,116,0.2915,"Left",1,1,0,150,"Left","NoStop",6,265
9,117,1.349905,"NoGo",NA,1,0,150,"NoGo","Stop",6,265
9,118,0.1674,"Right",1,1,0,200,"Right","NoStop",6,265
9,119,0.1317,"Right",1,1,0,200,"Right","NoStop",6,265
9,120,0.1384,"Left",1,0,1,200,"Right","NoStop",6,265
9,121,0.7078,"Right",1,1,0,200,"Right","NoStop",6,265
9,122,1.299441,"NoGo",NA,0,1,200,"Left","NoStop",6,265
9,123,1.299642,"NoGo",NA,0,1,200,"Left","NoStop",6,265
9,124,1.300153,"NoGo",NA,0,1,200,"Left","NoStop",6,265
9,125,0.9085,"Left",1,1,0,200,"Left","NoStop",6,265
9,126,0.3803,"Left",1,1,0,200,"Left","NoStop",6,265
9,127,0.2379,"Right",1,1,0,200,"Right","NoStop",6,265
9,128,0.1446,"Right",1,1,0,200,"Right","NoStop",6,265
9,129,0.1127,"Right",1,0,1,200,"NoGo","Stop",6,265
9,130,0.2555,"Right",1,1,0,150,"Right","NoStop",6,265
9,131,0.2007,"Right",1,1,0,150,"Right","NoStop",6,265
9,132,0.2808,"Right",1,1,0,150,"Right","NoStop",6,265
9,133,0.3375,"Left",1,1,0,150,"Left","NoStop",6,265
9,134,0.2443,"Right",1,1,0,150,"Right","NoStop",6,265
9,135,0.263,"Right",1,0,1,150,"NoGo","Stop",6,265
9,136,0.2759,"Left",1,1,0,100,"Left","NoStop",6,265
9,137,0.3236,"Right",1,1,0,100,"Right","NoStop",6,265
9,138,0.375,"Left",1,1,0,100,"Left","NoStop",6,265
9,139,0.3019,"Right",1,1,0,100,"Right","NoStop",6,265
9,140,0.3171,"Left",1,1,0,100,"Left","NoStop",6,265
9,141,0.2844,"Right",1,1,0,100,"Right","NoStop",6,265
9,142,0.2886,"Right",1,1,0,100,"Right","NoStop",6,265
9,143,1.399623,"NoGo",NA,1,0,100,"NoGo","Stop",6,265
9,144,0.2069,"Left",1,0,1,150,"NoGo","Stop",6,265
9,145,1.399638,"NoGo",NA,1,0,100,"NoGo","Stop",6,265
9,146,0.2251,"Left",1,1,0,150,"Left","NoStop",6,265
9,147,0.27,"Right",1,1,0,150,"Right","NoStop",6,265
9,148,0.2386,"Right",1,1,0,150,"Right","NoStop",6,265
9,149,0.2147,"Right",1,1,0,150,"Right","NoStop",6,265
9,150,0.2321,"Right",1,1,0,150,"Right","NoStop",6,265
9,151,0.3679,"Left",1,1,0,150,"Left","NoStop",6,265
9,152,0.2436,"Left",1,1,0,150,"Left","NoStop",6,265
9,153,0.2649,"Right",1,1,0,150,"Right","NoStop",6,265
9,154,0.3557,"Right",1,1,0,150,"Right","NoStop",6,265
9,155,0.1961,"Right",1,0,1,150,"NoGo","Stop",6,265
9,156,0.4965,"Right",1,1,0,100,"Right","NoStop",6,265
9,157,1.399875,"NoGo",NA,1,0,100,"NoGo","Stop",6,265
9,158,1.349674,"NoGo",NA,1,0,150,"NoGo","Stop",6,265
9,159,0.1476,"Left",1,0,1,200,"NoGo","Stop",6,265
9,160,0.4322,"Left",1,1,0,150,"Left","NoStop",6,265
9,161,0.3324,"Right",1,1,0,150,"Right","NoStop",6,265
9,162,0.2914,"Left",1,1,0,150,"Left","NoStop",6,265
9,163,0.3222,"Right",1,0,1,150,"NoGo","Stop",6,265
9,164,0.3722,"Right",1,1,0,100,"Right","NoStop",6,265
9,165,0.5085,"Left",1,1,0,100,"Left","NoStop",6,265
9,166,0.2622,"Right",1,1,0,100,"Right","NoStop",6,265
9,167,1.40008,"NoGo",NA,1,0,100,"NoGo","Stop",6,265
9,168,0.2929,"Left",1,1,0,150,"Left","NoStop",6,265
9,169,0.2947,"Right",1,1,0,150,"Right","NoStop",6,265
9,170,1.350127,"NoGo",NA,1,0,150,"NoGo","Stop",6,265
9,171,0.2132,"Left",1,1,0,200,"Left","NoStop",6,265
9,172,0.2097,"Right",1,1,0,200,"Right","NoStop",6,265
9,173,0.3041,"Left",1,1,0,200,"Left","NoStop",6,265
9,174,0.2694,"Left",1,1,0,200,"Left","NoStop",6,265
9,175,0.4129,"Right",1,1,0,200,"Right","NoStop",6,265
9,176,0.2689,"Right",1,1,0,200,"Right","NoStop",6,265
9,177,0.1871,"Left",1,0,1,200,"NoGo","Stop",6,265
9,178,0.3087,"Left",1,1,0,150,"Left","NoStop",6,265
9,179,0.3284,"Right",1,0,1,150,"NoGo","Stop",6,265
9,180,0.5599,"Left",1,1,0,100,"Left","NoStop",6,265
9,181,0.535,"Left",1,1,0,100,"Left","NoStop",6,265
9,182,0.3185,"Left",1,1,0,100,"Left","NoStop",6,265
9,183,0.2466,"Left",1,1,0,100,"Left","NoStop",6,265
9,184,1.399822,"NoGo",NA,1,0,100,"NoGo","Stop",6,265
9,185,0.28,"Left",1,1,0,150,"Left","NoStop",6,265
9,186,1.349243,"NoGo",NA,1,0,150,"NoGo","Stop",6,265
9,187,0.1363,"Left",1,1,0,200,"Left","NoStop",6,265
9,188,0.1844,"Left",1,1,0,200,"Left","NoStop",6,265
9,189,0.242,"Right",1,1,0,200,"Right","NoStop",6,265
9,190,0.1407,"Right",1,0,1,200,"NoGo","Stop",6,265
9,191,0.4195,"Right",1,1,0,150,"Right","NoStop",6,265
9,192,0.3209,"Left",1,1,0,150,"Left","NoStop",6,265
9,193,0.2673,"Right",1,1,0,150,"Right","NoStop",6,265
9,194,1.349703,"NoGo",NA,1,0,150,"NoGo","Stop",6,265
9,195,0.2914,"Right",1,1,0,200,"Right","NoStop",6,265
9,196,0.1712,"Left",1,0,1,200,"Right","NoStop",6,265
9,197,0.1813,"Right",1,1,0,200,"Right","NoStop",6,265
9,198,0.234,"Left",1,1,0,200,"Left","NoStop",6,265
9,199,0.2752,"Left",1,1,0,200,"Left","NoStop",6,265
9,200,0.1859,"Right",1,0,1,200,"NoGo","Stop",6,265
9,201,0.3793,"Right",1,1,0,150,"Right","NoStop",6,265
9,202,0.2474,"Right",1,1,0,150,"Right","NoStop",6,265
9,203,0.2323,"Right",1,1,0,150,"Right","NoStop",6,265
9,204,0.2342,"Right",1,1,0,150,"Right","NoStop",6,265
9,205,0.3167,"Left",1,1,0,150,"Left","NoStop",6,265
9,206,0.2773,"Left",1,1,0,150,"Left","NoStop",6,265
9,207,0.2877,"Right",1,1,0,150,"Right","NoStop",6,265
9,208,0.2802,"Left",1,1,0,150,"Left","NoStop",6,265
9,209,0.2471,"Right",1,1,0,150,"Right","NoStop",6,265
9,210,0.2508,"Right",1,1,0,150,"Right","NoStop",6,265
9,211,0.2693,"Left",1,0,1,150,"NoGo","Stop",6,265
9,212,0.3833,"Right",1,1,0,100,"Right","NoStop",6,265
9,213,0.3109,"Left",1,1,0,100,"Left","NoStop",6,265
9,214,0.3657,"Left",1,1,0,100,"Left","NoStop",6,265
9,215,0.5179,"Right",1,1,0,100,"Right","NoStop",6,265
9,216,1.400089,"NoGo",NA,1,0,100,"NoGo","Stop",6,265
9,217,1.349605,"NoGo",NA,1,0,150,"NoGo","Stop",6,265
9,218,1.300022,"NoGo",NA,1,0,200,"NoGo","Stop",6,265
9,219,0.2138,"Left",1,1,0,250,"Left","NoStop",6,265
9,220,0.08770000002,"Right",1,0,1,250,"NoGo","Stop",6,265
9,221,0.329,"Left",1,1,0,200,"Left","NoStop",6,265
9,222,0.1944,"Left",1,0,1,200,"NoGo","Stop",6,265
9,223,0.3734,"Left",1,1,0,150,"Left","NoStop",6,265
9,224,0.3446,"Left",1,1,0,150,"Left","NoStop",6,265
9,225,1.349525,"NoGo",NA,1,0,150,"NoGo","Stop",6,265
9,226,0.1715,"Left",1,1,0,200,"Left","NoStop",6,265
9,227,0.3149,"Left",1,1,0,200,"Left","NoStop",6,265
9,228,0.1911,"Left",1,0,1,200,"NoGo","Stop",6,265
9,229,0.3064,"Right",1,0,1,150,"NoGo","Stop",6,265
9,230,0.371,"Right",1,1,0,100,"Right","NoStop",6,265
9,231,0.2752,"Right",1,1,0,100,"Right","NoStop",6,265
9,232,0.3214,"Right",1,1,0,100,"Right","NoStop",6,265
9,233,0.2897,"Left",1,1,0,100,"Left","NoStop",6,265
9,234,0.3361,"Right",1,1,0,100,"Right","NoStop",6,265
9,235,0.4765,"Left",1,1,0,100,"Left","NoStop",6,265
9,236,0.3504,"Right",1,1,0,100,"Right","NoStop",6,265
9,237,1.399645,"NoGo",NA,1,0,100,"NoGo","Stop",6,265
9,238,0.2284,"Right",1,1,0,150,"Right","NoStop",6,265
9,239,0.2563,"Right",1,1,0,150,"Right","NoStop",6,265
9,240,0.3019,"Left",1,1,0,150,"Left","NoStop",6,265
13,1,0.1208000001,"Right",1,1,0,250,"Right","NoStop",9,296
13,2,0.06070000005,"Left",1,1,0,250,"Left","NoStop",9,296
13,3,0.1321999999,"Right",1,0,1,250,"Left","NoStop",9,296
13,4,0.2571999999,"Right",1,1,0,250,"Right","NoStop",9,296
13,5,0.2769,"Right",1,1,0,250,"Right","NoStop",9,296
13,6,0.1624,"Left",1,1,0,250,"Left","NoStop",9,296
13,7,0.2554,"Left",1,1,0,250,"Left","NoStop",9,296
13,8,0.09279999995,"Left",1,1,0,250,"Left","NoStop",9,296
13,9,0.1415,"Right",1,1,0,250,"Right","NoStop",9,296
13,10,0.1470999999,"Right",1,1,0,250,"Right","NoStop",9,296
13,11,0.1385999999,"Right",1,0,1,250,"NoGo","Stop",9,296
13,12,0.2013,"Left",1,1,0,200,"Left","NoStop",9,296
13,13,0.2391,"Left",1,0,1,200,"NoGo","Stop",9,296
13,14,0.4646,"Right",1,1,0,150,"Right","NoStop",9,296
13,15,0.3191,"Left",1,1,0,150,"Left","NoStop",9,296
13,16,0.2596999999,"Right",1,1,0,150,"Right","NoStop",9,296
13,17,0.3598000001,"Right",1,0,1,150,"NoGo","Stop",9,296
13,18,0.2621,"Left",1,1,0,100,"Left","NoStop",9,296
13,19,0.3535,"Right",1,1,0,100,"Right","NoStop",9,296
13,20,1.399951,"NoGo",NA,1,0,100,"NoGo","Stop",9,296
13,21,0.481,"Left",1,1,0,150,"Left","NoStop",9,296
13,22,0.2601999999,"Left",1,1,0,150,"Left","NoStop",9,296
13,23,0.2039,"Left",1,1,0,150,"Left","NoStop",9,296
13,24,0.2721,"Right",1,1,0,150,"Right","NoStop",9,296
13,25,0.2555,"Left",1,1,0,150,"Left","NoStop",9,296
13,26,0.2335,"Right",1,1,0,150,"Right","NoStop",9,296
13,27,0.1804,"Left",1,0,1,150,"NoGo","Stop",9,296
13,28,1.39999,"NoGo",NA,1,0,100,"NoGo","Stop",9,296
13,29,0.2702,"Right",1,1,0,150,"Right","NoStop",9,296
13,30,0.3234000001,"Right",1,1,0,150,"Right","NoStop",9,296
13,31,0.2313,"Left",1,1,0,150,"Left","NoStop",9,296
13,32,0.2159,"Right",1,1,0,150,"Right","NoStop",9,296
13,33,0.229,"Right",1,1,0,150,"Right","NoStop",9,296
13,34,0.2338000001,"Right",1,0,1,150,"NoGo","Stop",9,296
13,35,0.3059,"Left",1,1,0,100,"Left","NoStop",9,296
13,36,0.2543,"Right",1,1,0,100,"Right","NoStop",9,296
13,37,0.3501,"Right",1,1,0,100,"Right","NoStop",9,296
13,38,0.2995,"Right",1,1,0,100,"Right","NoStop",9,296
13,39,1.39993,"NoGo",NA,1,0,100,"NoGo","Stop",9,296
13,40,0.2622,"Left",1,1,0,150,"Left","NoStop",9,296
13,41,0.2713000001,"Right",1,1,0,150,"Right","NoStop",9,296
13,42,0.3266999999,"Right",1,1,0,150,"Right","NoStop",9,296
13,43,0.3259,"Left",1,1,0,150,"Left","NoStop",9,296
13,44,1.349467,"NoGo",NA,1,0,150,"NoGo","Stop",9,296
13,45,0.3069,"Left",1,1,0,200,"Left","NoStop",9,296
13,46,0.4666999999,"Right",1,0,1,200,"NoGo","Stop",9,296
13,47,0.5183,"Right",1,1,0,150,"Right","NoStop",9,296
13,48,0.2523000001,"Right",1,1,0,150,"Right","NoStop",9,296
13,49,0.2776,"Left",1,1,0,150,"Left","NoStop",9,296
13,50,0.2231,"Left",1,1,0,150,"Left","NoStop",9,296
13,51,0.2346,"Right",1,1,0,150,"Right","NoStop",9,296
13,52,0.201,"Left",1,1,0,150,"Left","NoStop",9,296
13,53,0.2544,"Left",1,1,0,150,"Left","NoStop",9,296
13,54,0.2356,"Left",1,1,0,150,"Left","NoStop",9,296
13,55,0.203,"Left",1,1,0,150,"Left","NoStop",9,296
13,56,0.1493000001,"Left",1,1,0,150,"Left","NoStop",9,296
13,57,0.2374000001,"Right",1,0,1,150,"NoGo","Stop",9,296
13,58,1.400305,"NoGo",NA,1,0,100,"NoGo","Stop",9,296
13,59,0.3345,"Right",1,1,0,150,"Right","NoStop",9,296
13,60,0.3074,"Right",1,1,0,150,"Right","NoStop",9,296
13,61,0.3689,"Left",1,1,0,150,"Left","NoStop",9,296
13,62,0.4968000001,"Right",1,1,0,150,"Right","NoStop",9,296
13,63,0.3547,"Right",1,0,1,150,"NoGo","Stop",9,296
13,64,0.4701,"Right",1,1,0,100,"Right","NoStop",9,296
13,65,0.3078,"Left",1,1,0,100,"Left","NoStop",9,296
13,66,0.3096999999,"Left",1,1,0,100,"Left","NoStop",9,296
13,67,0.3058,"Left",1,1,0,100,"Left","NoStop",9,296
13,68,0.3203,"Right",1,1,0,100,"Right","NoStop",9,296
13,69,1.399877,"NoGo",NA,1,0,100,"NoGo","Stop",9,296
13,70,0.1822,"Left",1,1,0,150,"Left","NoStop",9,296
13,71,0.1986,"Right",1,1,0,150,"Right","NoStop",9,296
13,72,0.213,"Right",1,1,0,150,"Right","NoStop",9,296
13,73,0.2218000001,"Right",1,1,0,150,"Right","NoStop",9,296
13,74,0.1813,"Right",1,1,0,150,"Right","NoStop",9,296
13,75,0.1823,"Right",1,1,0,150,"Right","NoStop",9,296
13,76,0.238,"Left",1,1,0,150,"Left","NoStop",9,296
13,77,0.2353,"Left",1,1,0,150,"Left","NoStop",9,296
13,78,0.2446,"Right",1,1,0,150,"Right","NoStop",9,296
13,79,0.2575,"Right",1,1,0,150,"Right","NoStop",9,296
13,80,0.2302,"Left",1,1,0,150,"Left","NoStop",9,296
13,81,0.2155,"Right",1,1,0,150,"Right","NoStop",9,296
13,82,0.2046999999,"Right",1,1,0,150,"Right","NoStop",9,296
13,83,0.2079,"Right",1,0,1,150,"NoGo","Stop",9,296
13,84,0.3059,"Left",1,1,0,100,"Left","NoStop",9,296
13,85,0.2622,"Right",1,1,0,100,"Right","NoStop",9,296
13,86,0.2133,"Left",1,1,0,100,"Left","NoStop",9,296
13,87,0.35,"Left",1,1,0,100,"Left","NoStop",9,296
13,88,0.4278,"Right",1,0,1,100,"NoGo","Stop",9,296
13,89,1.45021,"NoGo",NA,1,0,50,"NoGo","Stop",9,296
13,90,0.307,"Left",1,0,1,100,"NoGo","Stop",9,296
13,91,1.449424,"NoGo",NA,1,0,50,"NoGo","Stop",9,296
13,92,0.2388,"Right",1,0,1,100,"NoGo","Stop",9,296
13,93,0.6123,"Right",1,1,0,50,"Right","NoStop",9,296
13,94,1.449854,"NoGo",NA,1,0,50,"NoGo","Stop",9,296
13,95,0.2966,"Left",1,0,1,100,"NoGo","Stop",9,296
13,96,0.5259,"Right",1,1,0,50,"Right","NoStop",9,296
13,97,0.3509,"Left",1,1,0,50,"Left","NoStop",9,296
13,98,0.3288000001,"Left",1,1,0,50,"Left","NoStop",9,296
13,99,0.3066,"Left",1,1,0,50,"Left","NoStop",9,296
13,100,0.3396,"Right",1,1,0,50,"Right","NoStop",9,296
13,101,0.3341,"Right",1,1,0,50,"Right","NoStop",9,296
13,102,0.276,"Right",1,1,0,50,"Right","NoStop",9,296
13,103,1.449511,"NoGo",NA,1,0,50,"NoGo","Stop",9,296
13,104,0.3746999999,"Left",1,1,0,100,"Left","NoStop",9,296
13,105,0.2256,"Left",1,1,0,100,"Left","NoStop",9,296
13,106,0.2855,"Right",1,1,0,100,"Right","NoStop",9,296
13,107,0.2731,"Right",1,1,0,100,"Right","NoStop",9,296
13,108,0.2459,"Left",1,1,0,100,"Left","NoStop",9,296
13,109,0.2465,"Left",1,0,1,100,"NoGo","Stop",9,296
13,110,1.449996,"NoGo",NA,1,0,50,"NoGo","Stop",9,296
13,111,0.3296,"Left",1,1,0,100,"Left","NoStop",9,296
13,112,0.218,"Right",1,1,0,100,"Right","NoStop",9,296
13,113,1.399965,"NoGo",NA,1,0,100,"NoGo","Stop",9,296
13,114,0.1612,"Left",1,0,1,150,"NoGo","Stop",9,296
13,115,0.2599,"Right",1,1,0,100,"Right","NoStop",9,296
13,116,0.2741,"Right",1,0,1,100,"NoGo","Stop",9,296
13,117,1.449389,"NoGo",NA,1,0,50,"NoGo","Stop",9,296
13,118,0.2768000001,"Right",1,1,0,100,"Right","NoStop",9,296
13,119,0.1559,"Left",1,1,0,100,"Left","NoStop",9,296
13,120,0.4115,"Left",1,1,0,100,"Left","NoStop",9,296
13,121,0.3776999999,"Left",1,1,0,100,"Left","NoStop",9,296
13,122,0.4357,"Left",1,1,0,100,"Left","NoStop",9,296
13,123,0.2887,"Right",1,1,0,100,"Right","NoStop",9,296
13,124,0.2565,"Right",1,1,0,100,"Right","NoStop",9,296
13,125,0.1589,"Left",1,0,1,100,"Right","NoStop",9,296
13,126,0.3231999999,"Right",1,1,0,100,"Right","NoStop",9,296
13,127,0.3,"Left",1,1,0,100,"Left","NoStop",9,296
13,128,1.399878,"NoGo",NA,1,0,100,"NoGo","Stop",9,296
13,129,0.3017,"Left",1,1,0,150,"Left","NoStop",9,296
13,130,0.207,"Right",1,1,0,150,"Right","NoStop",9,296
13,131,0.228,"Right",1,1,0,150,"Right","NoStop",9,296
13,132,0.141,"Right",1,0,1,150,"NoGo","Stop",9,296
13,133,0.2411,"Left",1,1,0,100,"Left","NoStop",9,296
13,134,0.216,"Right",1,1,0,100,"Right","NoStop",9,296
13,135,0.2638000001,"Left",1,1,0,100,"Left","NoStop",9,296
13,136,0.2947,"Left",1,1,0,100,"Left","NoStop",9,296
13,137,0.2491,"Right",1,1,0,100,"Right","NoStop",9,296
13,138,0.2065999999,"Left",1,1,0,100,"Left","NoStop",9,296
13,139,0.188,"Right",1,1,0,100,"Right","NoStop",9,296
13,140,0.3291,"Right",1,1,0,100,"Right","NoStop",9,296
13,141,0.2375,"Left",1,1,0,100,"Left","NoStop",9,296
13,142,1.399954,"NoGo",NA,1,0,100,"NoGo","Stop",9,296
13,143,0.1585,"Right",1,1,0,150,"Right","NoStop",9,296
13,144,0.1163000001,"Left",1,0,1,150,"Right","NoStop",9,296
13,145,1.349432,"NoGo",NA,1,0,150,"NoGo","Stop",9,296
13,146,0.3895999999,"Left",1,0,1,200,"NoGo","Stop",9,296
13,147,1.349921,"NoGo",NA,1,0,150,"NoGo","Stop",9,296
13,148,0.1737,"Right",1,1,0,200,"Right","NoStop",9,296
13,149,0.2481,"Left",1,1,0,200,"Left","NoStop",9,296
13,150,0.189,"Left",1,0,1,200,"NoGo","Stop",9,296
13,151,0.2351,"Left",1,1,0,150,"Left","NoStop",9,296
13,152,0.2101,"Left",1,1,0,150,"Left","NoStop",9,296
13,153,0.1855,"Left",1,1,0,150,"Left","NoStop",9,296
13,154,0.182,"Left",1,1,0,150,"Left","NoStop",9,296
13,155,0.1115,"Left",1,0,1,150,"Right","NoStop",9,296
13,156,0.3640999999,"Left",1,1,0,150,"Left","NoStop",9,296
13,157,0.2781999999,"Right",1,0,1,150,"NoGo","Stop",9,296
13,158,0.4507,"Right",1,1,0,100,"Right","NoStop",9,296
13,159,0.3620999999,"Left",1,1,0,100,"Left","NoStop",9,296
13,160,0.4703000001,"Right",1,1,0,100,"Right","NoStop",9,296
13,161,0.2312,"Left",1,1,0,100,"Left","NoStop",9,296
13,162,0.2808,"Left",1,1,0,100,"Left","NoStop",9,296
13,163,0.2816,"Left",1,1,0,100,"Left","NoStop",9,296
13,164,0.2946,"Left",1,1,0,100,"Left","NoStop",9,296
13,165,0.3865,"Right",1,1,0,100,"Right","NoStop",9,296
13,166,0.2815,"Left",1,1,0,100,"Left","NoStop",9,296
13,167,0.2507,"Right",1,1,0,100,"Right","NoStop",9,296
13,168,0.306,"Left",1,1,0,100,"Left","NoStop",9,296
13,169,0.3084,"Left",1,1,0,100,"Left","NoStop",9,296
13,170,0.3341,"Right",1,1,0,100,"Right","NoStop",9,296
13,171,0.3456999999,"Right",1,1,0,100,"Right","NoStop",9,296
13,172,0.2338000001,"Right",1,1,0,100,"Right","NoStop",9,296
13,173,0.3262,"Right",1,1,0,100,"Right","NoStop",9,296
13,174,0.6624000001,"Left",1,1,0,100,"Left","NoStop",9,296
13,175,0.2242,"Right",1,1,0,100,"Right","NoStop",9,296
13,176,0.2974000001,"Right",1,1,0,100,"Right","NoStop",9,296
13,177,0.2941,"Left",1,1,0,100,"Left","NoStop",9,296
13,178,0.2467,"Right",1,1,0,100,"Right","NoStop",9,296
13,179,1.400363,"NoGo",NA,1,0,100,"NoGo","Stop",9,296
13,180,0.3902,"Left",1,1,0,150,"Left","NoStop",9,296
13,181,0.4036,"Right",1,0,1,150,"NoGo","Stop",9,296
13,182,0.302,"Left",1,0,1,100,"NoGo","Stop",9,296
13,183,0.3559,"Left",1,1,0,50,"Left","NoStop",9,296
13,184,0.4052,"Right",1,0,1,50,"NoGo","Stop",9,296
13,185,0.3756999999,"Right",1,1,0,50,"Right","NoStop",9,296
13,186,0.4453000001,"Left",1,1,0,50,"Left","NoStop",9,296
13,187,0.3185,"Right",1,1,0,50,"Right","NoStop",9,296
13,188,1.450357,"NoGo",NA,1,0,50,"NoGo","Stop",9,296
13,189,0.3589,"Right",1,0,1,100,"NoGo","Stop",9,296
13,190,0.3804000001,"Left",1,0,1,50,"NoGo","Stop",9,296
13,191,0.3615,"Right",1,1,0,50,"Right","NoStop",9,296
13,192,1.449854,"NoGo",NA,1,0,50,"NoGo","Stop",9,296
13,193,0.2212,"Right",1,1,0,100,"Right","NoStop",9,296
13,194,0.2081,"Left",1,1,0,100,"Left","NoStop",9,296
13,195,0.2161999999,"Right",1,1,0,100,"Right","NoStop",9,296
13,196,0.1734,"Left",1,1,0,100,"Left","NoStop",9,296
13,197,0.1838,"Right",1,0,1,100,"Left","NoStop",9,296
13,198,0.368,"Left",1,0,1,100,"NoGo","Stop",9,296
13,199,0.3295,"Left",1,1,0,50,"Left","NoStop",9,296
13,200,0.3355,"Left",1,1,0,50,"Left","NoStop",9,296
13,201,0.3619,"Right",1,0,1,50,"NoGo","Stop",9,296
13,202,0.3181999999,"Right",1,1,0,50,"Right","NoStop",9,296
13,203,0.4446999999,"Left",1,0,1,50,"NoGo","Stop",9,296
13,204,0.2273,"Right",1,1,0,50,"Right","NoStop",9,296
13,205,0.313,"Right",1,0,1,50,"NoGo","Stop",9,296
13,206,0.3084,"Right",1,1,0,50,"Right","NoStop",9,296
13,207,0.7658,"Left",1,0,1,50,"NoGo","Stop",9,296
13,208,0.6069,"Right",1,1,0,50,"Right","NoStop",9,296
13,209,0.3666,"Left",1,1,0,50,"Left","NoStop",9,296
13,210,0.3821999999,"Left",1,1,0,50,"Left","NoStop",9,296
13,211,1.449872,"NoGo",NA,1,0,50,"NoGo","Stop",9,296
13,212,0.2461,"Left",1,1,0,100,"Left","NoStop",9,296
13,213,0.1313,"Right",1,0,1,100,"Left","NoStop",9,296
13,214,0.295,"Left",1,1,0,100,"Left","NoStop",9,296
13,215,0.2949,"Right",1,0,1,100,"NoGo","Stop",9,296
13,216,0.339,"Left",1,1,0,50,"Left","NoStop",9,296
13,217,0.4249,"Right",1,1,0,50,"Right","NoStop",9,296
13,218,0.3444,"Right",1,1,0,50,"Right","NoStop",9,296
13,219,0.293,"Left",1,1,0,50,"Left","NoStop",9,296
13,220,0.32,"Left",1,1,0,50,"Left","NoStop",9,296
13,221,0.3423000001,"Right",1,1,0,50,"Right","NoStop",9,296
13,222,0.3075,"Right",1,0,1,50,"NoGo","Stop",9,296
13,223,0.3809,"Left",1,1,0,50,"Left","NoStop",9,296
13,224,0.4061,"Left",1,0,1,50,"NoGo","Stop",9,296
13,225,0.4075,"Left",1,0,1,50,"NoGo","Stop",9,296
13,226,0.4793000001,"Right",1,1,0,50,"Right","NoStop",9,296
13,227,1.449824,"NoGo",NA,1,0,50,"NoGo","Stop",9,296
13,228,0.3017,"Right",1,1,0,100,"Right","NoStop",9,296
13,229,0.2452,"Left",1,1,0,100,"Left","NoStop",9,296
13,230,1.399876,"NoGo",NA,1,0,100,"NoGo","Stop",9,296
13,231,0.2906,"Left",1,1,0,150,"Left","NoStop",9,296
13,232,0.2456,"Right",1,1,0,150,"Right","NoStop",9,296
13,233,0.2078,"Right",1,1,0,150,"Right","NoStop",9,296
13,234,0.1847,"Right",1,1,0,150,"Right","NoStop",9,296
13,235,0.1525,"Right",1,1,0,150,"Right","NoStop",9,296
13,236,0.2872,"Left",1,0,1,150,"NoGo","Stop",9,296
13,237,1.400135,"NoGo",NA,1,0,100,"NoGo","Stop",9,296
13,238,0.1305,"Right",1,0,1,150,"Left","NoStop",9,296
13,239,0.2845999999,"Left",1,1,0,150,"Left","NoStop",9,296
13,240,0.3839,"Right",1,0,1,150,"NoGo","Stop",9,296
14,1,0.1965,"Right",1,1,0,250,"Right","NoStop",8,684
14,2,0.2180999999,"Right",1,1,0,250,"Right","NoStop",8,684
14,3,1.249849,"NoGo",NA,1,0,250,"NoGo","Stop",8,684
14,4,0.4093,"Right",1,1,0,300,"Right","NoStop",8,684
14,5,0.9400999999,"Left",1,0,1,300,"NoGo","Stop",8,684
14,6,1.249838,"NoGo",NA,1,0,250,"NoGo","Stop",8,684
14,7,0.5517,"Left",1,1,0,300,"Left","NoStop",8,684
14,8,1.0992,"Right",1,0,1,300,"NoGo","Stop",8,684
14,9,0.9475,"Left",1,0,1,250,"NoGo","Stop",8,684
14,10,0.4704,"Left",1,1,0,200,"Left","NoStop",8,684
14,11,0.3712,"Right",1,1,0,200,"Right","NoStop",8,684
14,12,1.1404,"Right",1,0,1,200,"NoGo","Stop",8,684
14,13,0.4626,"Right",1,1,0,150,"Right","NoStop",8,684
14,14,0.3861999999,"Left",1,1,0,150,"Left","NoStop",8,684
14,15,0.4465,"Right",1,1,0,150,"Right","NoStop",8,684
14,16,0.9307,"Right",1,0,1,150,"NoGo","Stop",8,684
14,17,0.4509,"Left",1,1,0,100,"Left","NoStop",8,684
14,18,0.5491999999,"Left",1,1,0,100,"Left","NoStop",8,684
14,19,0.9521999999,"Left",1,0,1,100,"NoGo","Stop",8,684
14,20,0.4858000001,"Right",1,1,0,50,"Right","NoStop",8,684
14,21,0.4471,"Right",1,1,0,50,"Right","NoStop",8,684
14,22,0.5326,"Right",1,1,0,50,"Right","NoStop",8,684
14,23,1.1811,"Right",1,0,1,50,"NoGo","Stop",8,684
14,24,0.7501,"Right",1,1,0,50,"Right","NoStop",8,684
14,25,0.5404,"Right",1,1,0,50,"Right","NoStop",8,684
14,26,0.4925,"Left",1,1,0,50,"Left","NoStop",8,684
14,27,0.6630999999,"Right",1,1,0,50,"Right","NoStop",8,684
14,28,0.6545,"Left",1,1,0,50,"Left","NoStop",8,684
14,29,0.618,"Left",1,1,0,50,"Left","NoStop",8,684
14,30,0.5615,"Right",1,1,0,50,"Right","NoStop",8,684
14,31,0.8295,"Right",1,0,1,50,"NoGo","Stop",8,684
14,32,0.5048000001,"Right",1,1,0,50,"Right","NoStop",8,684
14,33,0.52,"Left",1,1,0,50,"Left","NoStop",8,684
14,34,1.1116,"Left",1,0,1,50,"NoGo","Stop",8,684
14,35,0.6843000001,"Left",1,1,0,50,"Left","NoStop",8,684
14,36,0.7349,"Left",1,1,0,50,"Left","NoStop",8,684
14,37,0.6881,"Right",1,1,0,50,"Right","NoStop",8,684
14,38,0.5335,"Left",1,1,0,50,"Left","NoStop",8,684
14,39,0.5294000001,"Right",1,1,0,50,"Right","NoStop",8,684
14,40,0.9768,"Right",1,0,1,50,"NoGo","Stop",8,684
14,41,0.66,"Right",1,1,0,50,"Right","NoStop",8,684
14,42,0.5941,"Left",1,1,0,50,"Left","NoStop",8,684
14,43,0.8786,"Right",1,0,1,50,"NoGo","Stop",8,684
14,44,1.0771,"Left",1,0,1,50,"NoGo","Stop",8,684
14,45,0.7113,"Left",1,1,0,50,"Left","NoStop",8,684
14,46,0.8435999999,"Right",1,0,1,50,"NoGo","Stop",8,684
14,47,0.53,"Left",1,1,0,50,"Left","NoStop",8,684
14,48,0.4095999999,"Left",1,1,0,50,"Left","NoStop",8,684
14,49,0.5611,"Left",1,1,0,50,"Left","NoStop",8,684
14,50,0.4933000001,"Right",1,1,0,50,"Right","NoStop",8,684
14,51,0.818,"Right",1,0,1,50,"NoGo","Stop",8,684
14,52,0.4693000001,"Left",1,1,0,50,"Left","NoStop",8,684
14,53,0.4846,"Left",1,1,0,50,"Left","NoStop",8,684
14,54,0.5928000001,"Left",1,1,0,50,"Left","NoStop",8,684
14,55,0.3362,"Right",1,1,0,50,"Right","NoStop",8,684
14,56,0.2589,"Left",1,1,0,50,"Left","NoStop",8,684
14,57,0.3372,"Left",1,1,0,50,"Left","NoStop",8,684
14,58,0.7694000001,"Left",1,0,1,50,"NoGo","Stop",8,684
14,59,0.5478,"Left",1,1,0,50,"Left","NoStop",8,684
14,60,0.9142,"Right",1,0,1,50,"NoGo","Stop",8,684
14,61,0.9556999999,"Right",1,0,1,50,"NoGo","Stop",8,684
14,62,0.8574,"Right",1,0,1,50,"NoGo","Stop",8,684
14,63,0.5697,"Left",1,1,0,50,"Left","NoStop",8,684
14,64,0.7343,"Right",1,0,1,50,"NoGo","Stop",8,684
14,65,0.4793,"Left",1,1,0,50,"Left","NoStop",8,684
14,66,0.2553000001,"Right",1,1,0,50,"Right","NoStop",8,684
14,67,0.7246999999,"Left",1,0,1,50,"NoGo","Stop",8,684
14,68,0.2948000001,"Right",1,1,0,50,"Right","NoStop",8,684
14,69,0.2904,"Left",1,1,0,50,"Left","NoStop",8,684
14,70,0.2661,"Right",1,1,0,50,"Right","NoStop",8,684
14,71,0.2243,"Left",1,1,0,50,"Left","NoStop",8,684
14,72,0.7389,"Left",1,0,1,50,"NoGo","Stop",8,684
14,73,0.3749,"Right",1,1,0,50,"Right","NoStop",8,684
14,74,0.484,"Left",1,1,0,50,"Left","NoStop",8,684
14,75,0.3774,"Right",1,1,0,50,"Right","NoStop",8,684
14,76,0.362,"Left",1,1,0,50,"Left","NoStop",8,684
14,77,0.2539,"Right",1,1,0,50,"Right","NoStop",8,684
14,78,0.6835,"Right",1,0,1,50,"NoGo","Stop",8,684
14,79,0.7121,"Left",1,0,1,50,"NoGo","Stop",8,684
14,80,0.4421,"Right",1,1,0,50,"Right","NoStop",8,684
14,81,0.3014,"Left",1,1,0,50,"Left","NoStop",8,684
14,82,0.4661999999,"Left",1,1,0,50,"Left","NoStop",8,684
14,83,0.5114,"Right",1,1,0,50,"Right","NoStop",8,684
14,84,0.824,"Right",1,0,1,50,"NoGo","Stop",8,684
14,85,0.5595999999,"Right",1,1,0,50,"Right","NoStop",8,684
14,86,0.7413,"Right",1,0,1,50,"NoGo","Stop",8,684
14,87,0.7996,"Left",1,0,1,50,"NoGo","Stop",8,684
14,88,0.4676,"Right",1,1,0,50,"Right","NoStop",8,684
14,89,0.4626,"Left",1,1,0,50,"Left","NoStop",8,684
14,90,0.7315,"Right",1,0,1,50,"NoGo","Stop",8,684
14,91,0.3031999999,"Left",1,1,0,50,"Left","NoStop",8,684
14,92,0.5424000001,"Left",1,1,0,50,"Left","NoStop",8,684
14,93,0.761,"Left",1,0,1,50,"NoGo","Stop",8,684
14,94,0.3635999999,"Right",1,1,0,50,"Right","NoStop",8,684
14,95,0.885,"Right",1,0,1,50,"NoGo","Stop",8,684
14,96,0.5298000001,"Left",1,1,0,50,"Left","NoStop",8,684
14,97,0.5417,"Left",1,1,0,50,"Left","NoStop",8,684
14,98,0.5372,"Right",1,1,0,50,"Right","NoStop",8,684
14,99,0.4952,"Left",1,1,0,50,"Left","NoStop",8,684
14,100,0.3312,"Right",1,1,0,50,"Right","NoStop",8,684
14,101,1.0323,"Left",1,0,1,50,"NoGo","Stop",8,684
14,102,0.4759,"Right",1,1,0,50,"Right","NoStop",8,684
14,103,0.7075,"Right",1,1,0,50,"Right","NoStop",8,684
14,104,0.8310999999,"Right",1,0,1,50,"NoGo","Stop",8,684
14,105,0.2769,"Left",1,1,0,50,"Left","NoStop",8,684
14,106,0.3740999999,"Right",1,1,0,50,"Right","NoStop",8,684
14,107,0.4186999999,"Right",1,1,0,50,"Right","NoStop",8,684
14,108,0.4311,"Right",1,1,0,50,"Right","NoStop",8,684
14,109,0.4178,"Right",1,1,0,50,"Right","NoStop",8,684
14,110,0.9942,"Right",1,0,1,50,"NoGo","Stop",8,684
14,111,0.6429000001,"Right",1,1,0,50,"Right","NoStop",8,684
14,112,0.5103,"Left",1,1,0,50,"Left","NoStop",8,684
14,113,0.4371,"Right",1,1,0,50,"Right","NoStop",8,684
14,114,0.471,"Left",1,1,0,50,"Left","NoStop",8,684
14,115,0.4659,"Right",1,1,0,50,"Right","NoStop",8,684
14,116,0.3431999999,"Right",1,1,0,50,"Right","NoStop",8,684
14,117,0.2815,"Right",1,1,0,50,"Right","NoStop",8,684
14,118,0.4306,"Left",1,1,0,50,"Left","NoStop",8,684
14,119,0.2733000001,"Right",1,1,0,50,"Right","NoStop",8,684
14,120,0.273,"Right",1,1,0,50,"Right","NoStop",8,684
14,121,0.8223000001,"Left",1,0,1,50,"NoGo","Stop",8,684
14,122,0.4429,"Right",1,1,0,50,"Right","NoStop",8,684
14,123,0.6786,"Left",1,0,1,50,"NoGo","Stop",8,684
14,124,0.4622,"Right",1,1,0,50,"Right","NoStop",8,684
14,125,0.2857,"Left",1,1,0,50,"Left","NoStop",8,684
14,126,0.3086999999,"Left",1,1,0,50,"Left","NoStop",8,684
14,127,0.3647,"Right",1,1,0,50,"Right","NoStop",8,684
14,128,0.2365,"Left",1,1,0,50,"Left","NoStop",8,684
14,129,0.5966999999,"Right",1,0,1,50,"NoGo","Stop",8,684
14,130,0.2776999999,"Left",1,1,0,50,"Left","NoStop",8,684
14,131,0.2981,"Left",1,1,0,50,"Left","NoStop",8,684
14,132,0.6930999999,"Right",1,0,1,50,"NoGo","Stop",8,684
14,133,0.6701,"Left",1,0,1,50,"NoGo","Stop",8,684
14,134,0.4343,"Left",1,1,0,50,"Left","NoStop",8,684
14,135,0.4426999999,"Right",1,1,0,50,"Right","NoStop",8,684
14,136,0.3289,"Left",1,1,0,50,"Left","NoStop",8,684
14,137,0.4313000001,"Right",1,1,0,50,"Right","NoStop",8,684
14,138,0.4553000001,"Left",1,1,0,50,"Left","NoStop",8,684
14,139,0.3448,"Right",1,1,0,50,"Right","NoStop",8,684
14,140,0.3535,"Left",1,1,0,50,"Left","NoStop",8,684
14,141,0.3038,"Right",1,1,0,50,"Right","NoStop",8,684
14,142,0.7990999999,"Left",1,0,1,50,"NoGo","Stop",8,684
14,143,0.3723,"Right",1,1,0,50,"Right","NoStop",8,684
14,144,0.3085,"Left",1,1,0,50,"Left","NoStop",8,684
14,145,0.3534,"Left",1,1,0,50,"Left","NoStop",8,684
14,146,0.3606999999,"Left",1,1,0,50,"Left","NoStop",8,684
14,147,0.3862,"Right",1,1,0,50,"Right","NoStop",8,684
14,148,0.3532,"Left",1,1,0,50,"Left","NoStop",8,684
14,149,0.3182,"Left",1,1,0,50,"Left","NoStop",8,684
14,150,0.876,"Right",1,0,1,50,"NoGo","Stop",8,684
14,151,0.306,"Left",1,1,0,50,"Left","NoStop",8,684
14,152,0.2807,"Left",1,1,0,50,"Left","NoStop",8,684
14,153,0.9262,"Right",1,0,1,50,"NoGo","Stop",8,684
14,154,0.8421,"Left",1,0,1,50,"NoGo","Stop",8,684
14,155,0.5214,"Left",1,1,0,50,"Left","NoStop",8,684
14,156,0.2959,"Left",1,1,0,50,"Left","NoStop",8,684
14,157,0.3224,"Left",1,1,0,50,"Left","NoStop",8,684
14,158,0.4013000001,"Right",1,1,0,50,"Right","NoStop",8,684
14,159,0.3918,"Right",1,1,0,50,"Right","NoStop",8,684
14,160,0.3468000001,"Right",1,1,0,50,"Right","NoStop",8,684
14,161,0.5035,"Left",1,1,0,50,"Left","NoStop",8,684
14,162,0.3631999999,"Left",1,1,0,50,"Left","NoStop",8,684
14,163,0.3833000001,"Left",1,1,0,50,"Left","NoStop",8,684
14,164,0.5096,"Left",1,1,0,50,"Left","NoStop",8,684
14,165,0.4723000001,"Right",1,1,0,50,"Right","NoStop",8,684
14,166,0.3162,"Right",1,1,0,50,"Right","NoStop",8,684
14,167,0.862,"Right",1,0,1,50,"NoGo","Stop",8,684
14,168,0.4,"Right",1,1,0,50,"Right","NoStop",8,684
14,169,0.5449,"Left",1,1,0,50,"Left","NoStop",8,684
14,170,0.5285,"Right",1,1,0,50,"Right","NoStop",8,684
14,171,0.5556,"Left",1,1,0,50,"Left","NoStop",8,684
14,172,0.4647,"Left",1,1,0,50,"Left","NoStop",8,684
14,173,0.443,"Right",1,1,0,50,"Right","NoStop",8,684
14,174,0.9349,"Right",1,0,1,50,"NoGo","Stop",8,684
14,175,0.9235,"Left",1,0,1,50,"NoGo","Stop",8,684
14,176,0.576,"Right",1,1,0,50,"Right","NoStop",8,684
14,177,0.8074,"Left",1,0,1,50,"NoGo","Stop",8,684
14,178,0.4756999999,"Right",1,1,0,50,"Right","NoStop",8,684
14,179,0.4447,"Right",1,1,0,50,"Right","NoStop",8,684
14,180,0.5255999999,"Right",1,1,0,50,"Right","NoStop",8,684
14,181,0.7141999999,"Left",1,1,0,50,"Left","NoStop",8,684
14,182,0.7314000001,"Left",1,0,1,50,"NoGo","Stop",8,684
14,183,0.3034,"Left",1,1,0,50,"Left","NoStop",8,684
14,184,0.2543,"Right",1,1,0,50,"Right","NoStop",8,684
14,185,0.2583,"Left",1,1,0,50,"Left","NoStop",8,684
14,186,0.2334000001,"Right",1,1,0,50,"Right","NoStop",8,684
14,187,0.1819000001,"Left",1,1,0,50,"Left","NoStop",8,684
14,188,0.7421,"Right",1,0,1,50,"NoGo","Stop",8,684
